onset	duration	eventnumber	stimpath	blockno	trialno	is_faststream	stim	food_idx	image_number	stim_code	is_natural	istarget	response	keypressed	rt	correct	time_stimon	time_stimoff	stimdur
10235.75	0.0999831	0	non_foods\stim108_inanimate_furniture_chair_4.png	1	1	1	chair_4	0	63	n/a	NaN	0	0	n/a	0	0	759.7096034	759.8095865	0.0999831
10273.25	0.0999895	1	foods\pork_loin_with_peas.jpg	1	1	1	pork_loin_with_peas	1	234	TF_003	0	0	0	n/a	0	0	759.8595927	759.9595822	0.0999895
10310.75	0.1000012	2	foods\frankfurters.jpg	1	1	1	frankfurters	1	123	TF_156	0	0	0	n/a	0	0	760.0096012	760.1096024	0.1000012
10348.25	0.0999959	3	non_foods\stim154_inanimate_tools_scissors_2.png	1	1	1	scissors_2	0	259	n/a	NaN	0	0	n/a	0	0	760.159586	760.2595819	0.0999959
10385.75	0.0999936	4	foods\licorice.jpg	1	1	1	licorice	1	179	TF_078	0	0	0	n/a	0	0	760.3095891	760.4095827	0.0999936
10423.25	0.0999998	5	non_foods\stim064_animate_mammal_cow_4.png	1	1	1	cow_4	0	97	n/a	NaN	0	0	n/a	0	0	760.4595793	760.5595791	0.0999998
10460.75	0.1000028	6	non_foods\stim062_animate_mammal_cow_2.png	1	1	1	cow_2	0	95	n/a	NaN	0	0	n/a	0	0	760.6095774	760.7095802	0.1000028
10498.25	0.1001759	7	foods\calamari.jpg	1	1	1	calamari	1	53	TF_019	0	0	0	n/a	0	0	760.7595931	760.859769	0.1001759
10535.75	0.0999853	8	foods\coconut.jpg	1	1	1	coconut	1	89	NF_030	1	0	0	n/a	0	0	760.9095914	761.0095767	0.0999853
10573.25	0.0999915	9	foods\spaghetti_with_olives_and_capers.jpg	1	1	1	spaghetti_with_olives_and_capers	1	276	TF_135	0	0	0	n/a	0	0	761.0595837	761.1595752	0.0999915
10610.75	0.0999945	10	non_foods\stim046_animate_insect_bug_2.png	1	1	1	bug_2	0	37	n/a	NaN	0	0	n/a	0	0	761.2095796	761.3095741	0.0999945
10648.25	0.0999949	11	non_foods\stim013_animate_bird_peacock_1.png	1	1	1	peacock_1	0	219	n/a	NaN	0	0	n/a	0	0	761.3595763	761.4595712	0.0999949
10685.75	0.099995	12	foods\coffee_beans.jpg	1	1	1	coffee_beans	1	90	TF_029	0	0	0	n/a	0	0	761.5095806	761.6095756	0.099995
10723.25	0.0999893	13	foods\tomato.jpg	1	1	1	tomato	1	298	NF_084	1	0	0	n/a	0	0	761.6595809	761.7595702	0.0999893
10760.75	0.0999986	14	foods\nougat.jpg	1	1	1	nougat	1	197	TF_144	0	0	0	n/a	0	0	761.8095827	761.9095813	0.0999986
10798.25	0.09998	15	non_foods\stim007_animate_bird_duck_3.png	1	1	1	duck_3	0	113	n/a	NaN	0	0	n/a	0	0	761.9595859	762.0595659	0.09998
10835.75	0.0999853	16	foods\pepperoni_pizza.jpg	1	1	1	pepperoni_pizza	1	229	TF_106	0	0	0	n/a	0	0	762.1095774	762.2095627	0.0999853
10873.25	0.0999984	17	non_foods\stim095_inanimate_clothing_shirt_3.png	1	1	1	shirt_3	0	264	n/a	NaN	0	0	n/a	0	0	762.2595688	762.3595672	0.0999984
10910.75	0.1000061	18	non_foods\stim001_animate_bird_chicken_1.png	1	1	1	chicken_1	0	66	n/a	NaN	0	0	n/a	0	0	762.4095706	762.5095767	0.1000061
10948.25	0.0999977	19	non_foods\stim152_inanimate_tools_pan_4.png	1	1	1	pan_4	0	208	n/a	NaN	0	0	n/a	0	0	762.5595627	762.6595604	0.0999977
10985.75	0.0999899	20	foods\grapes.jpg	1	1	1	grapes	1	142	NF_098	1	0	0	n/a	0	0	762.70957	762.8095599	0.0999899
11023.25	0.0999763	21	foods\cracker.jpg	1	1	1	cracker	1	98	TF_043	0	0	0	n/a	0	0	762.8595722	762.9595485	0.0999763
11060.75	0.0999879	22	foods\avocado.jpg	1	1	1	avocado	1	9	NF_012	1	0	0	n/a	0	0	763.0095686	763.1095565	0.0999879
11098.25	0.0999937	23	non_foods\stim070_animate_mammal_kangaroo_2.png	1	1	1	kangaroo_2	0	169	n/a	NaN	0	0	n/a	0	0	763.1595623	763.259556	0.0999937
11135.75	0.0999863	24	foods\hamburger.jpg	1	1	1	hamburger	1	150	TF_069	0	0	0	n/a	0	0	763.3095657	763.409552	0.0999863
11173.25	0.1000004	25	non_foods\stim009_animate_bird_parrot_1.png	1	1	1	parrot_1	0	212	n/a	NaN	0	0	n/a	0	0	763.4595547	763.5595551	0.1000004
11210.75	0.0999922	26	foods\ice_cream.jpg	1	1	1	ice_cream	1	162	TF_062	0	0	0	n/a	0	0	763.6095634	763.7095556	0.0999922
11248.25	0.0999914	27	non_foods\stim011_animate_bird_parrot_3.png	1	1	1	parrot_3	0	214	n/a	NaN	0	0	n/a	0	0	763.7595564	763.8595478	0.0999914
11285.75	0.0999919	28	foods\brownie.jpg	1	1	1	brownie	1	34	TF_011	0	0	0	n/a	0	0	763.9095583	764.0095502	0.0999919
11323.25	0.0999815	29	foods\steak.jpg	1	1	1	steak	1	283	TF_013	0	0	0	n/a	0	0	764.0595653	764.1595468	0.0999815
11360.75	0.0999855	30	foods\kiwi.jpg	1	1	1	kiwi	1	172	NF_044	1	0	0	n/a	0	0	764.2095591	764.3095446	0.0999855
11398.25	0.0999937	31	non_foods\stim082_inanimate_clothing_gloves_2.png	1	1	1	gloves_2	0	137	n/a	NaN	0	0	n/a	0	0	764.3595504	764.4595441	0.0999937
11435.75	0.099997	32	non_foods\stim040_animate_human_sports_4.png	1	1	1	sports_4	0	281	n/a	NaN	0	0	n/a	0	0	764.5095476	764.6095446	0.099997
11473.25	0.1000026	33	foods\broccoli.jpg	1	1	1	broccoli	1	29	NF_016	1	0	0	n/a	0	0	764.6595539	764.7595565	0.1000026
11510.75	0.0999912	34	non_foods\stim142_inanimate_tools_broom_2.png	1	1	1	broom_2	0	31	n/a	NaN	0	0	n/a	0	0	764.8095491	764.9095403	0.0999912
11548.25	0.0999939	35	foods\lemon_meringue_pie.jpg	1	1	1	lemon_meringue_pie	1	176	TF_151	0	0	0	n/a	0	0	764.959546	765.0595399	0.0999939
11585.75	0.0999941	36	non_foods\stim135_inanimate_plants_tree_3.png	1	1	1	tree_3	0	301	n/a	NaN	0	0	n/a	0	0	765.1095458	765.2095399	0.0999941
11623.25	0.0999972	37	non_foods\stim148_inanimate_tools_hammer_4.png	1	1	1	hammer_4	0	154	n/a	NaN	0	0	n/a	0	0	765.2595421	765.3595393	0.0999972
11660.75	0.09998	38	non_foods\stim059_animate_insect_grasshopper_3.png	1	1	1	grasshopper_3	0	145	n/a	NaN	0	0	n/a	0	0	765.4095857	765.5095657	0.09998
11698.25	0.0999869	39	foods\red_beans.jpg	1	1	1	red_beans	1	244	NF_033	1	0	0	n/a	0	0	765.5595473	765.6595342	0.0999869
11735.75	0.0999873	40	foods\chilli.jpg	1	1	1	chilli	1	74	NF_073	1	0	0	n/a	0	0	765.7095452	765.8095325	0.0999873
11773.25	0.0999931	41	foods\lamb_chops.jpg	1	1	1	lamb_chops	1	173	TF_040	0	0	0	n/a	0	0	765.8595405	765.9595336	0.0999931
11810.75	0.099986	42	foods\strawberry.jpg	1	1	1	strawberry	1	285	NF_037	1	0	0	n/a	0	0	766.009544	766.10953	0.099986
11848.25	0.099996	43	non_foods\stim129_inanimate_plants_sunflower_1.png	1	1	1	sunflower_1	0	286	n/a	NaN	1	0	n/a	0	0	766.1595346	766.2595306	0.099996
11885.75	0.0999951	44	non_foods\stim031_animate_human_clown_3.png	1	1	1	clown_3	0	87	n/a	NaN	0	0	n/a	0	0	766.3095339	766.409529	0.0999951
11923.25	0.0999887	45	foods\dates.jpg	1	1	1	dates	1	104	NF_032	1	0	0	n/a	0	0	766.4595353	766.559524	0.0999887
11960.75	0.1000039	46	non_foods\stim137_inanimate_plants_tulip_1.png	1	1	1	tulip_1	0	303	n/a	NaN	0	1	d	0.4423878	1	766.6095246	766.7095285	0.1000039
11998.25	0.0999956	47	non_foods\stim086_inanimate_clothing_hat_2.png	1	1	1	hat_2	0	156	n/a	NaN	0	0	n/a	0	0	766.759529	766.8595246	0.0999956
12035.75	0.0999864	48	foods\ginger_root.jpg	1	1	1	ginger_root	1	131	NF_088	1	0	0	n/a	0	0	766.9095357	767.0095221	0.0999864
12073.25	0.0999793	49	foods\oven-roasted_tomatoes.jpg	1	1	1	oven-roasted_tomatoes	1	203	TF_114	0	0	0	n/a	0	0	767.0595309	767.1595102	0.0999793
12110.75	0.0999461	50	foods\raw_sausage.jpg	1	1	1	raw_sausage	1	243	TF_131	0	0	0	n/a	0	0	767.2095715	767.3095176	0.0999461
12148.25	0.1000042	51	non_foods\stim081_inanimate_clothing_gloves_1.png	1	1	1	gloves_1	0	136	n/a	NaN	0	0	n/a	0	0	767.3595215	767.4595257	0.1000042
12185.75	0.0999929	52	non_foods\stim032_animate_human_clown_4.png	1	1	1	clown_4	0	88	n/a	NaN	0	0	n/a	0	0	767.5095249	767.6095178	0.0999929
12223.25	0.0999962	53	non_foods\stim045_animate_insect_bug_1.png	1	1	1	bug_1	0	36	n/a	NaN	0	0	n/a	0	0	767.6595173	767.7595135	0.0999962
12260.75	0.0999904	54	foods\cereal.jpg	1	1	1	cereal	1	59	TF_028	0	0	0	n/a	0	0	767.8095237	767.9095141	0.0999904
12298.25	0.0999863	55	foods\pancakes.jpg	1	1	1	pancakes	1	209	TF_058	0	0	0	n/a	0	0	767.9595231	768.0595094	0.0999863
12335.75	0.0999888	56	foods\salami.jpg	1	1	1	salami	1	255	TF_127	0	0	0	n/a	0	0	768.1095206	768.2095094	0.0999888
12373.25	0.099995	57	non_foods\stim123_inanimate_plants_bush_3.png	1	1	1	bush_3	0	42	n/a	NaN	0	0	n/a	0	0	768.2595177	768.3595127	0.099995
12410.75	0.0999926	58	foods\eggplant.jpg	1	1	1	eggplant	1	116	NF_059	1	0	0	n/a	0	0	768.4095176	768.5095102	0.0999926
12448.25	0.0999908	59	foods\potatoes.jpg	1	1	1	potatoes	1	237	NF_071	1	0	0	n/a	0	0	768.5595172	768.659508	0.0999908
12485.75	0.0999915	60	non_foods\stim114_inanimate_furniture_sofa_2.png	1	1	1	sofa_2	0	272	n/a	NaN	0	0	n/a	0	0	768.7095125	768.809504	0.0999915
12523.25	0.1000023	61	non_foods\stim023_animate_human_baby_3.png	1	1	1	baby_3	0	12	n/a	NaN	0	0	n/a	0	0	768.8595068	768.9595091	0.1000023
12560.75	0.0999691	62	non_foods\stim076_animate_mammal_monkey_4.png	1	1	1	monkey_4	0	191	n/a	NaN	0	0	n/a	0	0	769.0095319	769.109501	0.0999691
12598.25	0.0999914	63	foods\banana.jpg	1	1	1	banana	1	18	NF_013	1	0	0	n/a	0	0	769.1595102	769.2595016	0.0999914
12635.75	0.0999958	64	non_foods\stim143_inanimate_tools_broom_3.png	1	1	1	broom_3	0	32	n/a	NaN	0	0	n/a	0	0	769.3095031	769.4094989	0.0999958
12673.25	0.0999858	65	foods\cupcake.jpg	1	1	1	cupcake	1	102	TF_050	0	0	0	n/a	0	0	769.4595104	769.5594962	0.0999858
12710.75	0.0999972	66	non_foods\stim027_animate_human_child_3.png	1	1	1	child_3	0	72	n/a	NaN	0	0	n/a	0	0	769.6095008	769.709498	0.0999972
12748.25	0.0999899	67	foods\garlic.jpg	1	1	1	garlic	1	130	NF_001	1	0	0	n/a	0	0	769.7595088	769.8594987	0.0999899
12785.75	0.0999991	68	non_foods\stim060_animate_insect_grasshopper_4.png	1	1	1	grasshopper_4	0	146	n/a	NaN	0	0	n/a	0	0	769.9094955	770.0094946	0.0999991
12823.25	0.0999802	69	non_foods\stim092_inanimate_clothing_jeans_4.png	1	1	1	jeans_4	0	167	n/a	NaN	0	0	n/a	0	0	770.0595173	770.1594975	0.0999802
12860.75	0.1000003	70	non_foods\stim042_animate_insect_ant_2.png	1	1	1	ant_2	0	2	n/a	NaN	0	0	n/a	0	0	770.209493	770.3094933	0.1000003
12898.25	0.0999975	71	non_foods\stim036_animate_human_faces_4.png	1	1	1	faces_4	0	120	n/a	NaN	0	0	n/a	0	0	770.3594906	770.4594881	0.0999975
12935.75	0.099996	72	non_foods\stim103_inanimate_furniture_bed_3.png	1	1	1	bed_3	0	21	n/a	NaN	0	0	n/a	0	0	770.5094929	770.6094889	0.099996
12973.25	0.1000048	73	foods\ice_cream_sandwich.jpg	1	1	1	ice_cream_sandwich	1	163	TF_061	0	0	0	n/a	0	0	770.659501	770.7595058	0.1000048
13010.75	0.1000063	74	non_foods\stim012_animate_bird_parrot_4.png	1	1	1	parrot_4	0	215	n/a	NaN	0	0	n/a	0	0	770.8094804	770.9094867	0.1000063
13048.25	0.1000036	75	non_foods\stim054_animate_insect_dragonfly_2.png	1	1	1	dragonfly_2	0	107	n/a	NaN	0	0	n/a	0	0	770.9594843	771.0594879	0.1000036
13085.75	0.0999911	76	foods\blackberry.jpg	1	1	1	blackberry	1	24	NF_063	1	0	0	n/a	0	0	771.1094913	771.2094824	0.0999911
13123.25	0.0999936	77	foods\lobster.jpg	1	1	1	lobster	1	182	NF_007	1	0	0	n/a	0	0	771.2594926	771.3594862	0.0999936
13160.75	0.0999927	78	non_foods\stim055_animate_insect_dragonfly_3.png	1	1	1	dragonfly_3	0	108	n/a	NaN	0	0	n/a	0	0	771.4094878	771.5094805	0.0999927
13198.25	0.0999656	79	non_foods\stim109_inanimate_furniture_closet_1.png	1	1	1	closet_1	0	81	n/a	NaN	0	0	n/a	0	0	771.5594889	771.6594545	0.0999656
13235.75	0.0999844	80	foods\bread_roll.jpg	1	1	1	bread_roll	1	27	TF_090	0	0	0	n/a	0	0	771.709487	771.8094714	0.0999844
13273.25	0.0999758	81	foods\cream_donuts.jpg	1	1	1	cream_donuts	1	99	TF_014	0	0	0	n/a	0	0	771.8594811	771.9594569	0.0999758
13310.75	0.0999972	82	non_foods\stim122_inanimate_plants_bush_2.png	1	1	1	bush_2	0	41	n/a	NaN	0	0	n/a	0	0	772.0094801	772.1094773	0.0999972
13348.25	0.0999884	83	foods\pineapple.jpg	1	1	1	pineapple	1	231	NF_004	1	1	0	n/a	0	0	772.1594869	772.2594753	0.0999884
13385.75	0.0999883	84	foods\egg.jpg	1	1	1	egg	1	115	NF_095	1	0	0	n/a	0	0	772.3094823	772.4094706	0.0999883
13423.25	0.100009	85	non_foods\stim003_animate_bird_chicken_3.png	1	1	1	chicken_3	0	68	n/a	NaN	0	0	n/a	0	0	772.4594856	772.5594946	0.100009
13460.75	0.0999845	86	foods\rice_cake.jpg	1	1	1	rice_cake	1	251	TF_059	0	0	1	d	0.4423939	1	772.6094853	772.7094698	0.0999845
13498.25	0.0999895	87	foods\croissant.jpg	1	1	1	croissant	1	100	TF_037	0	0	0	n/a	0	0	772.7594805	772.85947	0.0999895
13535.75	0.0999909	88	non_foods\stim110_inanimate_furniture_closet_2.png	1	1	1	closet_2	0	82	n/a	NaN	0	0	n/a	0	0	772.9094751	773.009466	0.0999909
13573.25	0.0999882	89	foods\fruit_salad.jpg	1	1	1	fruit_salad	1	129	NF_043	1	0	0	n/a	0	0	773.0594748	773.159463	0.0999882
13610.75	0.0999918	90	foods\gnocchi.jpg	1	1	1	gnocchi	1	140	TF_064	0	0	0	n/a	0	0	773.2094731	773.3094649	0.0999918
13648.25	0.0999935	91	non_foods\stim099_inanimate_clothing_socks_3.png	1	1	1	socks_3	0	269	n/a	NaN	0	0	n/a	0	0	773.3594681	773.4594616	0.0999935
13685.75	0.1000001	92	non_foods\stim010_animate_bird_parrot_2.png	1	1	1	parrot_2	0	213	n/a	NaN	0	0	n/a	0	0	773.5094639	773.609464	0.1000001
13723.25	0.0999936	93	non_foods\stim090_inanimate_clothing_jeans_2.png	1	1	1	jeans_2	0	165	n/a	NaN	0	0	n/a	0	0	773.6594676	773.7594612	0.0999936
13760.75	0.0999871	94	non_foods\stim134_inanimate_plants_tree_2.png	1	1	1	tree_2	0	300	n/a	NaN	0	0	n/a	0	0	773.8094627	773.9094498	0.0999871
13798.25	0.099999	95	non_foods\stim080_animate_mammal_rhino_4.png	1	1	1	rhino_4	0	249	n/a	NaN	0	0	n/a	0	0	773.9594596	774.0594586	0.099999
13835.75	0.0999899	96	foods\red_cabbage.jpg	1	1	1	red_cabbage	1	245	NF_023	1	0	0	n/a	0	0	774.1094694	774.2094593	0.0999899
13873.25	0.100026	97	non_foods\stim057_animate_insect_grasshopper_1.png	1	1	1	grasshopper_1	0	143	n/a	NaN	0	0	n/a	0	0	774.2594442	774.3594702	0.100026
13910.75	0.1000042	98	non_foods\stim066_animate_mammal_giraffe_2.png	1	1	1	giraffe_2	0	133	n/a	NaN	0	0	n/a	0	0	774.4094516	774.5094558	0.1000042
13948.25	0.0999561	99	foods\cabbage.jpg	1	1	1	cabbage	1	48	NF_025	1	0	0	n/a	0	0	774.5594683	774.6594244	0.0999561
13985.75	0.0999889	100	non_foods\stim014_animate_bird_peacock_2.png	1	1	1	peacock_2	0	220	n/a	NaN	0	0	n/a	0	0	774.7094606	774.8094495	0.0999889
14023.25	0.0999904	101	foods\grilled_chicken_breast.jpg	1	1	1	grilled_chicken_breast	1	149	TF_104	0	0	0	n/a	0	0	774.8594627	774.9594531	0.0999904
14060.75	0.0999939	102	non_foods\stim065_animate_mammal_giraffe_1.png	1	1	1	giraffe_1	0	132	n/a	NaN	0	0	n/a	0	0	775.0094516	775.1094455	0.0999939
14098.25	0.0999937	103	foods\green_olives.jpg	1	1	1	green_olives	1	148	TF_085	0	0	0	n/a	0	0	775.1594545	775.2594482	0.0999937
14135.75	0.0999926	104	non_foods\stim047_animate_insect_bug_3.png	1	1	1	bug_3	0	38	n/a	NaN	0	0	n/a	0	0	775.3094513	775.4094439	0.0999926
14173.25	0.0999957	105	non_foods\stim020_animate_bird_penguin_4.png	1	1	1	penguin_4	0	228	n/a	NaN	0	0	n/a	0	0	775.4594488	775.5594445	0.0999957
14210.75	0.0999984	106	foods\cherry.jpg	1	1	1	cherry	1	64	NF_027	1	0	0	n/a	0	0	775.609451	775.7094494	0.0999984
14248.25	0.0999926	107	non_foods\stim085_inanimate_clothing_hat_1.png	1	1	1	hat_1	0	155	n/a	NaN	0	0	n/a	0	0	775.7594467	775.8594393	0.0999926
14285.75	0.1000193	108	non_foods\stim121_inanimate_plants_bush_1.png	1	1	1	bush_1	0	40	n/a	NaN	0	0	n/a	0	0	775.9094446	776.0094639	0.1000193
14323.25	0.0999696	109	non_foods\stim043_animate_insect_ant_3.png	1	1	1	ant_3	0	3	n/a	NaN	0	0	n/a	0	0	776.0594696	776.1594392	0.0999696
14360.75	0.0999898	110	foods\wafer.jpg	1	1	1	wafer	1	307	TF_155	0	0	0	n/a	0	0	776.2094479	776.3094377	0.0999898
14398.25	0.0999984	111	non_foods\stim101_inanimate_furniture_bed_1.png	1	1	1	bed_1	0	19	n/a	NaN	0	0	n/a	0	0	776.3594379	776.4594363	0.0999984
14435.75	0.099996	112	non_foods\stim091_inanimate_clothing_jeans_3.png	1	1	1	jeans_3	0	166	n/a	NaN	0	0	n/a	0	0	776.509438	776.609434	0.099996
14473.25	0.100001	113	non_foods\stim063_animate_mammal_cow_3.png	1	1	1	cow_3	0	96	n/a	NaN	0	0	n/a	0	0	776.6594359	776.7594369	0.100001
14510.75	0.0999909	114	foods\spaghetti_with_meat_sauce.jpg	1	1	1	spaghetti_with_meat_sauce	1	275	TF_137	0	0	0	n/a	0	0	776.8094436	776.9094345	0.0999909
14548.25	0.0999896	115	foods\waffle.jpg	1	1	1	waffle	1	308	TF_030	0	0	0	n/a	0	0	776.9594406	777.0594302	0.0999896
14585.75	0.0999918	116	foods\baguette.jpg	1	1	1	baguette	1	15	TF_006	0	0	0	n/a	0	0	777.1094386	777.2094304	0.0999918
14623.25	0.0999913	117	non_foods\stim112_inanimate_furniture_closet_4.png	1	1	1	closet_4	0	84	n/a	NaN	0	0	n/a	0	0	777.2594362	777.3594275	0.0999913
14660.75	0.0999917	118	foods\cinnamon.jpg	1	1	1	cinnamon	1	79	NF_017	1	0	0	n/a	0	0	777.4094328	777.5094245	0.0999917
14698.25	0.0999911	119	foods\chestnut.jpg	1	1	1	chestnut	1	65	NF_020	1	0	0	n/a	0	0	777.5594381	777.6594292	0.0999911
14735.75	0.0999838	120	non_foods\stim058_animate_insect_grasshopper_2.png	1	1	1	grasshopper_2	0	144	n/a	NaN	0	0	n/a	0	0	777.70943	777.8094138	0.0999838
14773.25	0.0999476	121	foods\fried_zucchini.jpg	1	1	1	fried_zucchini	1	125	TF_159	0	0	0	n/a	0	0	777.8594733	777.9594209	0.0999476
14810.75	0.099981	122	non_foods\stim151_inanimate_tools_pan_3.png	1	1	1	pan_3	0	207	n/a	NaN	0	0	n/a	0	0	778.0094345	778.1094155	0.099981
14848.25	0.0999994	123	non_foods\stim029_animate_human_clown_1.png	1	1	1	clown_1	0	85	n/a	NaN	0	0	n/a	0	0	778.1594202	778.2594196	0.0999994
14885.75	0.0999961	124	non_foods\stim049_animate_insect_butterfly_1.png	1	1	1	butterfly_1	0	44	n/a	NaN	0	0	n/a	0	0	778.3094256	778.4094217	0.0999961
14923.25	0.0999937	125	non_foods\stim067_animate_mammal_giraffe_3.png	1	1	1	giraffe_3	0	134	n/a	NaN	0	0	n/a	0	0	778.4594227	778.5594164	0.0999937
14960.75	0.0999997	126	non_foods\stim038_animate_human_sports_2.png	1	1	1	sports_2	0	279	n/a	NaN	0	0	n/a	0	0	778.6094165	778.7094162	0.0999997
14998.25	0.0999946	127	non_foods\stim050_animate_insect_butterfly_2.png	1	1	1	butterfly_2	0	45	n/a	NaN	0	0	n/a	0	0	778.7594204	778.859415	0.0999946
15035.75	0.0999956	128	non_foods\stim128_inanimate_plants_cactus_4.png	1	1	1	cactus_4	0	52	n/a	NaN	0	0	n/a	0	0	778.9094164	779.009412	0.0999956
15073.25	0.0999904	129	non_foods\stim083_inanimate_clothing_gloves_3.png	1	1	1	gloves_3	0	138	n/a	NaN	0	0	n/a	0	0	779.0594165	779.1594069	0.0999904
15110.75	0.1000007	130	non_foods\stim093_inanimate_clothing_shirt_1.png	1	1	1	shirt_1	0	262	n/a	NaN	0	0	n/a	0	0	779.2094106	779.3094113	0.1000007
15148.25	0.0999949	131	non_foods\stim084_inanimate_clothing_gloves_4.png	1	1	1	gloves_4	0	139	n/a	NaN	0	0	n/a	0	0	779.3594127	779.4594076	0.0999949
15185.75	0.1000175	132	foods\lasagna.jpg	1	1	1	lasagna	1	174	TF_076	0	0	0	n/a	0	0	779.5094171	779.6094346	0.1000175
15223.25	0.0999608	133	foods\pork_and_rice.jpg	1	1	1	pork_and_rice	1	233	TF_080	0	0	0	n/a	0	0	779.6594451	779.7594059	0.0999608
15260.75	0.0999895	134	foods\asparagus.jpg	1	1	1	asparagus	1	8	NF_010	1	0	0	n/a	0	0	779.8094137	779.9094032	0.0999895
15298.25	0.0999929	135	non_foods\stim107_inanimate_furniture_chair_3.png	1	1	1	chair_3	0	62	n/a	NaN	0	0	n/a	0	0	779.9594142	780.0594071	0.0999929
15335.75	0.1	136	non_foods\stim145_inanimate_tools_hammer_1.png	1	1	1	hammer_1	0	151	n/a	NaN	0	0	n/a	0	0	780.1094017	780.2094017	0.1
15373.25	0.0999914	137	foods\grapefruits.jpg	1	1	1	grapefruits	1	141	NF_085	1	0	0	n/a	0	0	780.2594097	780.3594011	0.0999914
15410.75	0.0999934	138	non_foods\stim052_animate_insect_butterfly_4.png	1	1	1	butterfly_4	0	47	n/a	NaN	0	0	n/a	0	0	780.409405	780.5093984	0.0999934
15448.25	0.1000005	139	foods\baked_cod_with_carrots_and_green_beans.jpg	1	1	1	baked_cod_with_carrots_and_green_beans	1	16	TF_082	0	1	0	n/a	0	0	780.5593997	780.6594002	0.1000005
15485.75	0.0999655	140	non_foods\stim061_animate_mammal_cow_1.png	1	1	1	cow_1	0	94	n/a	NaN	0	0	n/a	0	0	780.709429	780.8093945	0.0999655
15523.25	0.0999977	141	non_foods\stim051_animate_insect_butterfly_3.png	1	1	1	butterfly_3	0	46	n/a	NaN	0	1	d	0.3921099	1	780.8593978	780.9593955	0.0999977
15560.75	0.0999953	142	non_foods\stim016_animate_bird_peacock_4.png	1	1	1	peacock_4	0	222	n/a	NaN	0	0	n/a	0	0	781.009399	781.1093943	0.0999953
15598.25	0.0999891	143	foods\octopus.jpg	1	1	1	octopus	1	198	TF_113	0	0	0	n/a	0	0	781.1594024	781.2593915	0.0999891
15635.75	0.100012	144	non_foods\stim075_animate_mammal_monkey_3.png	1	1	1	monkey_3	0	190	n/a	NaN	0	0	n/a	0	0	781.3093995	781.4094115	0.100012
15673.25	0.0999718	145	foods\chocolate_pudding.jpg	1	1	1	chocolate_pudding	1	78	TF_018	0	0	0	n/a	0	0	781.459417	781.5593888	0.0999718
15710.75	0.0999951	146	non_foods\stim111_inanimate_furniture_closet_3.png	1	1	1	closet_3	0	83	n/a	NaN	0	0	n/a	0	0	781.6093924	781.7093875	0.0999951
15748.25	0.0999931	147	foods\stew_with_potatoes_and_carrots.jpg	1	1	1	stew_with_potatoes_and_carrots	1	284	TF_139	0	0	0	n/a	0	0	781.7593964	781.8593895	0.0999931
15785.75	0.0999899	148	foods\smoked_ham.jpg	1	1	1	smoked_ham	1	266	TF_118	0	0	0	n/a	0	0	781.9093952	782.0093851	0.0999899
15823.25	0.0999872	149	foods\green_beans.jpg	1	1	1	green_beans	1	147	NF_034	1	0	0	n/a	0	0	782.0593932	782.1593804	0.0999872
15860.75	0.0999907	150	foods\cooked_ham.jpg	1	1	1	cooked_ham	1	91	TF_116	0	0	0	n/a	0	0	782.2093951	782.3093858	0.0999907
15898.25	0.0999978	151	foods\mortadella.jpg	1	1	1	mortadella	1	192	TF_083	0	0	0	n/a	0	0	782.3593829	782.4593807	0.0999978
15935.75	0.0999785	152	non_foods\stim025_animate_human_child_1.png	1	1	1	child_1	0	70	n/a	NaN	0	0	n/a	0	0	782.5093984	782.6093769	0.0999785
15973.25	0.0999914	153	foods\cinnamon_sroll.jpg	1	1	1	cinnamon_sroll	1	80	TF_021	0	0	0	n/a	0	0	782.6593889	782.7593803	0.0999914
16010.75	0.0999872	154	foods\dried_figs.jpg	1	1	1	dried_figs	1	110	TF_054	0	0	0	n/a	0	0	782.8093894	782.9093766	0.0999872
16048.25	0.0999888	155	foods\hazelnuts.jpg	1	1	1	hazelnuts	1	159	NF_065	1	0	0	n/a	0	0	782.959388	783.0593768	0.0999888
16085.75	0.1000141	156	foods\potato_chips.jpg	1	1	1	potato_chips	1	236	TF_097	0	0	0	n/a	0	0	783.1093898	783.2094039	0.1000141
18910.75	0.1000188	157	non_foods\stim117_inanimate_furniture_table_1.png	1	2	1	table_1	0	291	n/a	NaN	0	0	n/a	0	0	794.4092846	794.5093034	0.1000188
18948.25	0.0999976	158	non_foods\stim155_inanimate_tools_scissors_3.png	1	2	1	scissors_3	0	260	n/a	NaN	0	0	n/a	0	0	794.5592763	794.6592739	0.0999976
18985.75	0.0999912	159	foods\artichoke.jpg	1	2	1	artichoke	1	7	NF_018	1	0	0	n/a	0	0	794.709283	794.8092742	0.0999912
19023.25	0.0999961	160	non_foods\stim160_inanimate_tools_wrench_4.png	1	2	1	wrench_4	0	313	n/a	NaN	0	0	n/a	0	0	794.8592713	794.9592674	0.0999961
19060.75	0.099991	161	non_foods\stim026_animate_human_child_2.png	1	2	1	child_2	0	71	n/a	NaN	0	0	n/a	0	0	795.0092693	795.1092603	0.099991
19098.25	0.0999562	162	non_foods\stim024_animate_human_baby_4.png	1	2	1	baby_4	0	13	n/a	NaN	0	0	n/a	0	0	795.1593181	795.2592743	0.0999562
19135.75	0.0999894	163	foods\papaya.jpg	1	2	1	papaya	1	210	NF_069	1	0	0	n/a	0	0	795.309273	795.4092624	0.0999894
19173.25	0.0999967	164	non_foods\stim053_animate_insect_dragonfly_1.png	1	2	1	dragonfly_1	0	106	n/a	NaN	0	0	n/a	0	0	795.4592679	795.5592646	0.0999967
19210.75	0.0999914	165	foods\pasta_carbonara.jpg	1	2	1	pasta_carbonara	1	216	TF_027	0	0	0	n/a	0	0	795.6092747	795.7092661	0.0999914
19248.25	0.0999947	166	non_foods\stim074_animate_mammal_monkey_2.png	1	2	1	monkey_2	0	189	n/a	NaN	0	0	n/a	0	0	795.7592671	795.8592618	0.0999947
19285.75	0.099987	167	foods\risotto_with_peas_and_asparagus_tips.jpg	1	2	1	risotto_with_peas_and_asparagus_tips	1	252	TF_123	0	0	0	n/a	0	0	795.9092713	796.0092583	0.099987
19323.25	0.0999914	168	foods\fruit_flan.jpg	1	2	1	fruit_flan	1	127	TF_093	0	0	0	n/a	0	0	796.059267	796.1592584	0.0999914
19360.75	0.09999	169	foods\prawn.jpg	1	2	1	prawn	1	238	NF_041	1	0	0	n/a	0	0	796.2092681	796.3092581	0.09999
19398.25	0.0999873	170	foods\cuttlefish.jpg	1	2	1	cuttlefish	1	103	NF_093	1	0	0	n/a	0	0	796.3592664	796.4592537	0.0999873
19435.75	0.0999967	171	non_foods\stim004_animate_bird_chicken_4.png	1	2	1	chicken_4	0	69	n/a	NaN	0	0	n/a	0	0	796.509257	796.6092537	0.0999967
19473.25	0.099983	172	foods\fruit_pie.jpg	1	2	1	fruit_pie	1	128	TF_147	0	0	0	n/a	0	0	796.6592686	796.7592516	0.099983
19510.75	0.0999851	173	non_foods\stim019_animate_bird_penguin_3.png	1	2	1	penguin_3	0	227	n/a	NaN	1	0	n/a	0	0	796.8092564	796.9092415	0.0999851
19548.25	0.0999732	174	non_foods\stim131_inanimate_plants_sunflower_3.png	1	2	1	sunflower_3	0	288	n/a	NaN	0	0	n/a	0	0	796.9592868	797.05926	0.0999732
19585.75	0.0999988	175	non_foods\stim149_inanimate_tools_pan_1.png	1	2	1	pan_1	0	205	n/a	NaN	0	1	d	0.3920905	1	797.1092511	797.2092499	0.0999988
19623.25	0.0999963	176	foods\baked_lamb_with_potatoes.jpg	1	2	1	baked_lamb_with_potatoes	1	17	TF_001	0	0	0	n/a	0	0	797.259251	797.3592473	0.0999963
19660.75	0.0999893	177	foods\salmon.jpg	1	2	1	salmon	1	256	TF_130	0	0	0	n/a	0	0	797.4092597	797.509249	0.0999893
19698.25	0.0999889	178	foods\linguine_with_clams.jpg	1	2	1	linguine_with_clams	1	181	TF_077	0	0	0	n/a	0	0	797.5592582	797.6592471	0.0999889
19735.75	0.0999906	179	foods\chocolate_bar.jpg	1	2	1	chocolate_bar	1	75	TF_033	0	0	0	n/a	0	0	797.7092563	797.8092469	0.0999906
19773.25	0.0999877	180	foods\honey.jpg	1	2	1	honey	1	160	NF_062	1	0	0	n/a	0	0	797.8592538	797.9592415	0.0999877
19810.75	0.0999855	181	foods\pea_pod.jpg	1	2	1	pea_pod	1	217	NF_082	1	0	0	n/a	0	0	798.0092445	798.10923	0.0999855
19848.25	0.0999966	182	non_foods\stim097_inanimate_clothing_socks_1.png	1	2	1	socks_1	0	267	n/a	NaN	0	0	n/a	0	0	798.1592421	798.2592387	0.0999966
19885.75	0.0999931	183	non_foods\stim006_animate_bird_duck_2.png	1	2	1	duck_2	0	112	n/a	NaN	0	0	n/a	0	0	798.3092434	798.4092365	0.0999931
19923.25	0.0999865	184	foods\taco.jpg	1	2	1	taco	1	295	TF_141	0	0	0	n/a	0	0	798.459249	798.5592355	0.0999865
19960.75	0.1000093	185	foods\fries.jpg	1	2	1	fries	1	126	TF_094	0	0	0	n/a	0	0	798.6092478	798.7092571	0.1000093
19998.25	0.0999785	186	non_foods\stim102_inanimate_furniture_bed_2.png	1	2	1	bed_2	0	20	n/a	NaN	0	0	n/a	0	0	798.759255	798.8592335	0.0999785
20035.75	0.1000007	187	non_foods\stim030_animate_human_clown_2.png	1	2	1	clown_2	0	86	n/a	NaN	0	0	n/a	0	0	798.9092335	799.0092342	0.1000007
20073.25	0.0999905	188	non_foods\stim096_inanimate_clothing_shirt_4.png	1	2	1	shirt_4	0	265	n/a	NaN	0	0	n/a	0	0	799.0592398	799.1592303	0.0999905
20110.75	0.0999911	189	foods\radish.jpg	1	2	1	radish	1	240	NF_090	1	0	0	n/a	0	0	799.2092407	799.3092318	0.0999911
20148.25	0.1000052	190	non_foods\stim028_animate_human_child_4.png	1	2	1	child_4	0	73	n/a	NaN	0	0	n/a	0	0	799.3592237	799.4592289	0.1000052
20185.75	0.099987	191	foods\brussel_sprouts.jpg	1	2	1	brussel_sprouts	1	35	NF_021	1	0	0	n/a	0	0	799.5092384	799.6092254	0.099987
20223.25	0.0999915	192	non_foods\stim088_inanimate_clothing_hat_4.png	1	2	1	hat_4	0	158	n/a	NaN	0	0	n/a	0	0	799.6592329	799.7592244	0.0999915
20260.75	0.0999775	193	non_foods\stim146_inanimate_tools_hammer_2.png	1	2	1	hammer_2	0	152	n/a	NaN	0	0	n/a	0	0	799.8092468	799.9092243	0.0999775
20298.25	0.0999959	194	non_foods\stim089_inanimate_clothing_jeans_1.png	1	2	1	jeans_1	0	164	n/a	NaN	1	0	n/a	0	0	799.9592276	800.0592235	0.0999959
20335.75	0.0999926	195	foods\celery.jpg	1	2	1	celery	1	58	NF_092	1	0	0	n/a	0	0	800.1092317	800.2092243	0.0999926
20373.25	0.0999914	196	non_foods\stim033_animate_human_faces_1.png	1	2	1	faces_1	0	117	n/a	NaN	0	1	d	0.2923865	1	800.259227	800.3592184	0.0999914
20410.75	0.1000177	197	foods\orange.jpg	1	2	1	orange	1	201	NF_008	1	0	0	n/a	0	0	800.4092321	800.5092498	0.1000177
20448.25	0.0999607	198	foods\lemon.jpg	1	2	1	lemon	1	175	NF_049	1	0	0	n/a	0	0	800.5592607	800.6592214	0.0999607
20485.75	0.0999937	199	non_foods\stim018_animate_bird_penguin_2.png	1	2	1	penguin_2	0	226	n/a	NaN	0	0	n/a	0	0	800.7092214	800.8092151	0.0999937
20523.25	0.0999935	200	foods\oregano.jpg	1	2	1	oregano	1	202	NF_066	1	0	0	n/a	0	0	800.8592227	800.9592162	0.0999935
20560.75	0.0999878	201	foods\lentils.jpg	1	2	1	lentils	1	177	NF_047	1	0	0	n/a	0	0	801.0092254	801.1092132	0.0999878
20598.25	0.0999919	202	non_foods\stim100_inanimate_clothing_socks_4.png	1	2	1	socks_4	0	270	n/a	NaN	0	0	n/a	0	0	801.1592196	801.2592115	0.0999919
20635.75	0.0999984	203	non_foods\stim079_animate_mammal_rhino_3.png	1	2	1	rhino_3	0	248	n/a	NaN	0	0	n/a	0	0	801.3092162	801.4092146	0.0999984
20673.25	0.09999	204	non_foods\stim087_inanimate_clothing_hat_3.png	1	2	1	hat_3	0	157	n/a	NaN	0	0	n/a	0	0	801.4592174	801.5592074	0.09999
20710.75	0.0999953	205	non_foods\stim136_inanimate_plants_tree_4.png	1	2	1	tree_4	0	302	n/a	NaN	0	0	n/a	0	0	801.6092132	801.7092085	0.0999953
20748.25	0.0999908	206	foods\peas.jpg	1	2	1	peas	1	224	NF_081	1	0	0	n/a	0	0	801.7592178	801.8592086	0.0999908
20785.75	0.099988	207	foods\pomegranate.jpg	1	2	1	pomegranate	1	232	NF_058	1	0	0	n/a	0	0	801.9092181	802.0092061	0.099988
20823.25	0.1000047	208	non_foods\stim056_animate_insect_dragonfly_4.png	1	2	1	dragonfly_4	0	109	n/a	NaN	0	0	n/a	0	0	802.0592003	802.159205	0.1000047
20860.75	0.1000004	209	foods\chocolate_chip_cookies.jpg	1	2	1	chocolate_chip_cookies	1	76	TF_010	0	0	0	n/a	0	0	802.2092212	802.3092216	0.1000004
20898.25	0.0999882	210	foods\cauliflower.jpg	1	2	1	cauliflower	1	57	NF_022	1	0	0	n/a	0	0	802.3592112	802.4591994	0.0999882
20935.75	0.0999919	211	foods\hotdog.jpg	1	2	1	hotdog	1	161	TF_070	0	0	0	n/a	0	0	802.5092089	802.6092008	0.0999919
20973.25	0.0999886	212	non_foods\stim069_animate_mammal_kangaroo_1.png	1	2	1	kangaroo_1	0	168	n/a	NaN	0	0	n/a	0	0	802.6592083	802.7591969	0.0999886
21010.75	0.0999878	213	foods\bagel.jpg	1	2	1	bagel	1	14	TF_005	0	0	0	n/a	0	0	802.8092079	802.9091957	0.0999878
21048.25	0.0999974	214	non_foods\stim039_animate_human_sports_3.png	1	2	1	sports_3	0	280	n/a	NaN	0	0	n/a	0	0	802.9592	803.0591974	0.0999974
21085.75	0.0999915	215	foods\fennel.jpg	1	2	1	fennel	1	121	NF_036	1	0	0	n/a	0	0	803.1092018	803.2091933	0.0999915
21123.25	0.099991	216	foods\rockmelon.jpg	1	2	1	rockmelon	1	254	NF_060	1	0	0	n/a	0	0	803.2592036	803.3591946	0.099991
21160.75	0.1000013	217	non_foods\stim127_inanimate_plants_cactus_3.png	1	2	1	cactus_3	0	51	n/a	NaN	0	0	n/a	0	0	803.4091927	803.509194	0.1000013
21198.25	0.0999915	218	non_foods\stim116_inanimate_furniture_sofa_4.png	1	2	1	sofa_4	0	274	n/a	NaN	0	0	n/a	0	0	803.559197	803.6591885	0.0999915
21235.75	0.099997	219	non_foods\stim104_inanimate_furniture_bed_4.png	1	2	1	bed_4	0	22	n/a	NaN	0	0	n/a	0	0	803.7091956	803.8091926	0.099997
21273.25	0.0999912	220	foods\cooked_prawn.jpg	1	2	1	cooked_prawn	1	92	TF_060	0	0	0	n/a	0	0	803.8591983	803.9591895	0.0999912
21310.75	0.1000295	221	non_foods\stim098_inanimate_clothing_socks_2.png	1	2	1	socks_2	0	268	n/a	NaN	0	0	n/a	0	0	804.0091936	804.1092231	0.1000295
21348.25	0.1000006	222	non_foods\stim119_inanimate_furniture_table_3.png	1	2	1	table_3	0	293	n/a	NaN	0	0	n/a	0	0	804.159185	804.2591856	0.1000006
21385.75	0.0999891	223	non_foods\stim034_animate_human_faces_2.png	1	2	1	faces_2	0	118	n/a	NaN	0	0	n/a	0	0	804.3091923	804.4091814	0.0999891
21423.25	0.0999915	224	foods\spinach.jpg	1	2	1	spinach	1	277	NF_094	1	0	0	n/a	0	0	804.4591924	804.5591839	0.0999915
21460.75	0.0999924	225	foods\peach.jpg	1	2	1	peach	1	218	NF_079	1	1	0	n/a	0	0	804.6091924	804.7091848	0.0999924
21498.25	0.0999933	226	non_foods\stim077_animate_mammal_rhino_1.png	1	2	1	rhino_1	0	246	n/a	NaN	0	0	n/a	0	0	804.7591849	804.8591782	0.0999933
21535.75	0.099994	227	non_foods\stim126_inanimate_plants_cactus_2.png	1	2	1	cactus_2	0	50	n/a	NaN	0	1	d	0.3920881	1	804.9091852	805.0091792	0.099994
21573.25	0.0999943	228	non_foods\stim115_inanimate_furniture_sofa_3.png	1	2	1	sofa_3	0	273	n/a	NaN	0	0	n/a	0	0	805.059182	805.1591763	0.0999943
21610.75	0.0999918	229	foods\figs.jpg	1	2	1	figs	1	122	NF_035	1	0	0	n/a	0	0	805.2091852	805.309177	0.0999918
21648.25	0.0999925	230	foods\swordfish.jpg	1	2	1	swordfish	1	290	TF_101	0	0	0	n/a	0	0	805.3591853	805.4591778	0.0999925
21685.75	0.099995	231	foods\nectarine.jpg	1	2	1	nectarine	1	196	NF_078	1	0	0	n/a	0	0	805.5091848	805.6091798	0.099995
21723.25	0.0999958	232	non_foods\stim041_animate_insect_ant_1.png	1	2	1	ant_1	0	1	n/a	NaN	0	0	n/a	0	0	805.6591794	805.7591752	0.0999958
21760.75	0.099942	233	foods\carrot.jpg	1	2	1	carrot	1	56	NF_019	1	0	0	n/a	0	0	805.8092262	805.9091682	0.099942
21798.25	0.0999879	234	foods\museli_bars.jpg	1	2	1	museli_bars	1	193	TF_008	0	0	0	n/a	0	0	805.9591795	806.0591674	0.0999879
21835.75	0.09999	235	foods\mandarin.jpg	1	2	1	mandarin	1	184	NF_052	1	0	0	n/a	0	0	806.1091809	806.2091709	0.09999
21873.25	0.0999912	236	foods\almonds.jpg	1	2	1	almonds	1	0	NF_053	1	0	0	n/a	0	0	806.2591768	806.359168	0.0999912
21910.75	0.0999895	237	foods\chocolate_pralines.jpg	1	2	1	chocolate_pralines	1	77	TF_035	0	0	0	n/a	0	0	806.4091774	806.5091669	0.0999895
21948.25	0.0999964	238	non_foods\stim021_animate_human_baby_1.png	1	2	1	baby_1	0	10	n/a	NaN	0	0	n/a	0	0	806.5591687	806.6591651	0.0999964
21985.75	0.0999964	239	non_foods\stim071_animate_mammal_kangaroo_3.png	1	2	1	kangaroo_3	0	170	n/a	NaN	0	0	n/a	0	0	806.7091657	806.8091621	0.0999964
22023.25	0.1000027	240	foods\mango.jpg	1	2	1	mango	1	185	NF_054	1	0	0	n/a	0	0	806.8591713	806.959174	0.1000027
22060.75	0.0999762	241	foods\rice.jpg	1	2	1	rice	1	250	TF_121	0	0	0	n/a	0	0	807.0091714	807.1091476	0.0999762
22098.25	0.0999986	242	non_foods\stim158_inanimate_tools_wrench_2.png	1	2	1	wrench_2	0	311	n/a	NaN	0	0	n/a	0	0	807.1591619	807.2591605	0.0999986
22135.75	0.0999872	243	foods\mussels.jpg	1	2	1	mussels	1	195	TF_042	0	0	0	n/a	0	0	807.3091715	807.4091587	0.0999872
22173.25	0.099983	244	foods\fried_calamari.jpg	1	2	1	fried_calamari	1	124	TF_020	0	0	0	n/a	0	0	807.4591647	807.5591477	0.099983
22210.75	0.0999528	245	foods\spring_onions.jpg	1	2	1	spring_onions	1	282	NF_086	1	0	0	n/a	0	0	807.6092076	807.7091604	0.0999528
22248.25	0.0999852	246	foods\beetroots.jpg	1	2	1	beetroots	1	23	NF_015	1	0	0	n/a	0	0	807.7591656	807.8591508	0.0999852
22285.75	0.0999945	247	non_foods\stim133_inanimate_plants_tree_1.png	1	2	1	tree_1	0	299	n/a	NaN	0	0	n/a	0	0	807.9091558	808.0091503	0.0999945
22323.25	0.099996	248	non_foods\stim105_inanimate_furniture_chair_1.png	1	2	1	chair_1	0	60	n/a	NaN	0	0	n/a	0	0	808.0591569	808.1591529	0.099996
22360.75	0.0999854	249	foods\pear.jpg	1	2	1	pear	1	223	NF_077	1	0	0	n/a	0	0	808.2091618	808.3091472	0.0999854
22398.25	0.0999906	250	foods\corncob.jpg	1	2	1	corncob	1	93	NF_051	1	0	0	n/a	0	0	808.3591602	808.4591508	0.0999906
22435.75	0.0999877	251	foods\onion.jpg	1	2	1	onion	1	200	NF_029	1	0	0	n/a	0	0	808.5091588	808.6091465	0.0999877
22473.25	0.0999896	252	non_foods\stim118_inanimate_furniture_table_2.png	1	2	1	table_2	0	292	n/a	NaN	1	0	n/a	0	0	808.6591523	808.7591419	0.0999896
22510.75	0.0999856	253	foods\oyster.jpg	1	2	1	oyster	1	204	NF_067	1	0	0	n/a	0	0	808.809154	808.9091396	0.0999856
22548.25	0.0999889	254	foods\bread.jpg	1	2	1	bread	1	26	TF_089	0	0	1	d	0.3002118	1	808.9591558	809.0591447	0.0999889
22585.75	0.0999892	255	foods\mushroom.jpg	1	2	1	mushroom	1	194	NF_039	1	0	0	n/a	0	0	809.109153	809.2091422	0.0999892
22623.25	0.1000151	256	non_foods\stim124_inanimate_plants_bush_4.png	1	2	1	bush_4	0	43	n/a	NaN	0	0	n/a	0	0	809.2591404	809.3591555	0.1000151
22660.75	0.0999682	257	foods\cannoli.jpg	1	2	1	cannoli	1	54	TF_022	0	0	0	n/a	0	0	809.4091706	809.5091388	0.0999682
22698.25	0.1000002	258	non_foods\stim022_animate_human_baby_2.png	1	2	1	baby_2	0	11	n/a	NaN	0	0	n/a	0	0	809.5591419	809.6591421	0.1000002
22735.75	0.0999872	259	foods\cucumber.jpg	1	2	1	cucumber	1	101	NF_026	1	0	0	n/a	0	0	809.7091467	809.8091339	0.0999872
22773.25	0.0999918	260	non_foods\stim106_inanimate_furniture_chair_2.png	1	2	1	chair_2	0	61	n/a	NaN	0	0	n/a	0	0	809.859142	809.9591338	0.0999918
22810.75	0.099982	261	foods\toast.jpg	1	2	1	toast	1	296	TF_053	0	0	0	n/a	0	0	810.009142	810.109124	0.099982
22848.25	0.0999918	262	non_foods\stim068_animate_mammal_giraffe_4.png	1	2	1	giraffe_4	0	135	n/a	NaN	0	0	n/a	0	0	810.1591393	810.2591311	0.0999918
22885.75	0.099989	263	non_foods\stim073_animate_mammal_monkey_1.png	1	2	1	monkey_1	0	188	n/a	NaN	0	0	n/a	0	0	810.3091345	810.4091235	0.099989
22923.25	0.0999719	264	foods\pumpkin.jpg	1	2	1	pumpkin	1	239	NF_101	1	0	0	n/a	0	0	810.4591506	810.5591225	0.0999719
22960.75	0.0999979	265	non_foods\stim044_animate_insect_ant_4.png	1	2	1	ant_4	0	4	n/a	NaN	0	0	n/a	0	0	810.6091322	810.7091301	0.0999979
22998.25	0.0999975	266	non_foods\stim048_animate_insect_bug_4.png	1	2	1	bug_4	0	39	n/a	NaN	0	0	n/a	0	0	810.7591309	810.8591284	0.0999975
23035.75	0.0999981	267	non_foods\stim037_animate_human_sports_1.png	1	2	1	sports_1	0	278	n/a	NaN	0	0	n/a	0	0	810.9091294	811.0091275	0.0999981
23073.25	0.100031	268	foods\raisins.jpg	1	2	1	raisins	1	241	NF_096	1	0	0	n/a	0	0	811.0591362	811.1591672	0.100031
23110.75	0.0999893	269	foods\pickles.jpg	1	2	1	pickles	1	230	TF_134	0	0	0	n/a	0	0	811.2091335	811.3091228	0.0999893
23148.25	0.09999	270	foods\minestrone_soup.jpg	1	2	1	minestrone_soup	1	187	TF_160	0	0	0	n/a	0	0	811.3591318	811.4591218	0.09999
23185.75	0.09999	271	foods\apple.jpg	1	2	1	apple	1	5	NF_055	1	0	0	n/a	0	0	811.5091309	811.6091209	0.09999
23223.25	0.0999849	272	foods\capsicum.jpg	1	2	1	capsicum	1	55	NF_076	1	0	0	n/a	0	0	811.6591339	811.7591188	0.0999849
23260.75	0.0999924	273	foods\apricot.jpg	1	2	1	apricot	1	6	NF_002	1	0	0	n/a	0	0	811.8091276	811.90912	0.0999924
23298.25	0.099998	274	non_foods\stim113_inanimate_furniture_sofa_1.png	1	2	1	sofa_1	0	271	n/a	NaN	0	0	n/a	0	0	811.9591216	812.0591196	0.099998
23335.75	0.1000003	275	foods\brie.jpg	1	2	1	brie	1	28	TF_016	0	0	0	n/a	0	0	812.1091155	812.2091158	0.1000003
23373.25	0.0999979	276	non_foods\stim005_animate_bird_duck_1.png	1	2	1	duck_1	0	111	n/a	NaN	0	0	n/a	0	0	812.2591174	812.3591153	0.0999979
23410.75	0.0999991	277	non_foods\stim130_inanimate_plants_sunflower_2.png	1	2	1	sunflower_2	0	287	n/a	NaN	0	0	n/a	0	0	812.4091154	812.5091145	0.0999991
23448.25	0.0999987	278	non_foods\stim072_animate_mammal_kangaroo_4.png	1	2	1	kangaroo_4	0	171	n/a	NaN	0	0	n/a	0	0	812.5591148	812.6591135	0.0999987
23485.75	0.0999875	279	foods\meatballs.jpg	1	2	1	meatballs	1	186	TF_112	0	0	0	n/a	0	0	812.7091176	812.8091051	0.0999875
23523.25	0.1000143	280	non_foods\stim150_inanimate_tools_pan_2.png	1	2	1	pan_2	0	206	n/a	NaN	0	0	n/a	0	0	812.859115	812.9591293	0.1000143
23560.75	0.0999918	281	non_foods\stim015_animate_bird_peacock_3.png	1	2	1	peacock_3	0	221	n/a	NaN	0	0	n/a	0	0	813.0091137	813.1091055	0.0999918
23598.25	0.0999908	282	foods\potato_and_green_bean_salad.jpg	1	2	1	potato_and_green_bean_salad	1	235	TF_072	0	0	0	n/a	0	0	813.1591166	813.2591074	0.0999908
23635.75	0.0999878	283	foods\donut.jpg	1	2	1	donut	1	105	TF_032	0	0	0	n/a	0	0	813.3091169	813.4091047	0.0999878
23673.25	0.0999954	284	non_foods\stim139_inanimate_plants_tulip_3.png	1	2	1	tulip_3	0	305	n/a	NaN	0	0	n/a	0	0	813.4591069	813.5591023	0.0999954
23710.75	0.0999929	285	foods\lime.jpg	1	2	1	lime	1	180	NF_048	1	0	0	n/a	0	0	813.609112	813.7091049	0.0999929
23748.25	0.099994	286	non_foods\stim035_animate_human_faces_3.png	1	2	1	faces_3	0	119	n/a	NaN	0	0	n/a	0	0	813.7591042	813.8590982	0.099994
23785.75	0.1000145	287	foods\savory_pie.jpg	1	2	1	savory_pie	1	257	TF_146	0	0	0	n/a	0	0	813.9091084	814.0091229	0.1000145
23823.25	0.0999779	288	foods\toasted_bread_with_tomatoes.jpg	1	2	1	toasted_bread_with_tomatoes	1	297	TF_017	0	0	0	n/a	0	0	814.0591214	814.1590993	0.0999779
23860.75	0.0999975	289	non_foods\stim157_inanimate_tools_wrench_1.png	1	2	1	wrench_1	0	310	n/a	NaN	0	0	n/a	0	0	814.2090973	814.3090948	0.0999975
23898.25	0.0999929	290	non_foods\stim120_inanimate_furniture_table_4.png	1	2	1	table_4	0	294	n/a	NaN	0	0	n/a	0	0	814.3590996	814.4590925	0.0999929
23935.75	0.0999841	291	foods\parmesan_cheese.jpg	1	2	1	parmesan_cheese	1	211	TF_091	0	0	0	n/a	0	0	814.5091049	814.609089	0.0999841
23973.25	0.0999935	292	non_foods\stim141_inanimate_tools_broom_1.png	1	2	1	broom_1	0	30	n/a	NaN	0	0	n/a	0	0	814.6590997	814.7590932	0.0999935
24010.75	0.0999865	293	foods\watermelon.jpg	1	2	1	watermelon	1	309	NF_005	1	0	0	n/a	0	0	814.809102	814.9090885	0.0999865
24048.25	0.1000034	294	non_foods\stim008_animate_bird_duck_4.png	1	2	1	duck_4	0	114	n/a	NaN	0	0	n/a	0	0	814.9590878	815.0590912	0.1000034
24085.75	0.0999955	295	non_foods\stim153_inanimate_tools_scissors_1.png	1	2	1	scissors_1	0	258	n/a	NaN	0	0	n/a	0	0	815.1090945	815.20909	0.0999955
24123.25	0.0999981	296	non_foods\stim002_animate_bird_chicken_2.png	1	2	1	chicken_2	0	67	n/a	NaN	0	0	n/a	0	0	815.2590884	815.3590865	0.0999981
24160.75	0.0999902	297	foods\lettuce.jpg	1	2	1	lettuce	1	178	NF_046	1	0	0	n/a	0	0	815.4090953	815.5090855	0.0999902
24198.25	0.099995	298	non_foods\stim017_animate_bird_penguin_1.png	1	2	1	penguin_1	0	225	n/a	NaN	0	0	n/a	0	0	815.5590913	815.6590863	0.099995
24235.75	0.0999945	299	non_foods\stim159_inanimate_tools_wrench_3.png	1	2	1	wrench_3	0	312	n/a	NaN	0	0	n/a	0	0	815.7090839	815.8090784	0.0999945
24273.25	0.100006	300	non_foods\stim140_inanimate_plants_tulip_4.png	1	2	1	tulip_4	0	306	n/a	NaN	0	0	n/a	0	0	815.8590854	815.9590914	0.100006
24310.75	0.0999984	301	non_foods\stim147_inanimate_tools_hammer_3.png	1	2	1	hammer_3	0	153	n/a	NaN	0	0	n/a	0	0	816.0090809	816.1090793	0.0999984
24348.25	0.0999893	302	foods\roasted_chicken.jpg	1	2	1	roasted_chicken	1	253	TF_109	0	0	0	n/a	0	0	816.1590878	816.2590771	0.0999893
24385.75	0.0999907	303	foods\omelette.jpg	1	2	1	omelette	1	199	TF_057	0	0	0	n/a	0	0	816.3090921	816.4090828	0.0999907
24423.25	0.0999502	304	non_foods\stim138_inanimate_plants_tulip_2.png	1	2	1	tulip_2	0	304	n/a	NaN	0	0	n/a	0	0	816.4591235	816.5590737	0.0999502
24460.75	0.0999946	305	non_foods\stim132_inanimate_plants_sunflower_4.png	1	2	1	sunflower_4	0	289	n/a	NaN	0	0	n/a	0	0	816.6090818	816.7090764	0.0999946
24498.25	0.0999929	306	non_foods\stim156_inanimate_tools_scissors_4.png	1	2	1	scissors_4	0	261	n/a	NaN	0	0	n/a	0	0	816.7590779	816.8590708	0.0999929
24535.75	0.0999926	307	foods\blue_cheese.jpg	1	2	1	blue_cheese	1	25	TF_066	0	0	0	n/a	0	0	816.9090808	817.0090734	0.0999926
24573.25	0.0999939	308	non_foods\stim125_inanimate_plants_cactus_1.png	1	2	1	cactus_1	0	49	n/a	NaN	0	0	n/a	0	0	817.0590778	817.1590717	0.0999939
24610.75	0.0999937	309	non_foods\stim144_inanimate_tools_broom_4.png	1	2	1	broom_4	0	33	n/a	NaN	0	0	n/a	0	0	817.2090714	817.3090651	0.0999937
24648.25	0.099988	310	non_foods\stim094_inanimate_clothing_shirt_2.png	1	2	1	shirt_2	0	263	n/a	NaN	0	0	n/a	0	0	817.3590739	817.4590619	0.099988
24685.75	0.0999884	311	foods\lollies.jpg	1	2	1	lollies	1	183	TF_026	0	0	0	n/a	0	0	817.5090784	817.6090668	0.0999884
24723.25	0.0999927	312	non_foods\stim078_animate_mammal_rhino_2.png	1	2	1	rhino_2	0	247	n/a	NaN	0	0	n/a	0	0	817.6590743	817.759067	0.0999927
24760.75	0.0999885	313	foods\raw_ham.jpg	1	2	1	raw_ham	1	242	TF_117	0	0	0	n/a	0	0	817.8090773	817.9090658	0.0999885
25135.75	0.0999691	314	non_foods\stim080_animate_mammal_rhino_4.png	1	3	1	rhino_4	0	249	n/a	NaN	0	0	n/a	0	0	819.3090827	819.4090518	0.0999691
25173.25	0.0999983	315	non_foods\stim008_animate_bird_duck_4.png	1	3	1	duck_4	0	114	n/a	NaN	0	0	n/a	0	0	819.4590514	819.5590497	0.0999983
25210.75	0.0999998	316	non_foods\stim144_inanimate_tools_broom_4.png	1	3	1	broom_4	0	33	n/a	NaN	0	0	n/a	0	0	819.6090512	819.709051	0.0999998
25248.25	0.0999933	317	non_foods\stim066_animate_mammal_giraffe_2.png	1	3	1	giraffe_2	0	133	n/a	NaN	0	0	n/a	0	0	819.7590532	819.8590465	0.0999933
25285.75	0.0999923	318	foods\fruit_salad.jpg	1	3	1	fruit_salad	1	129	NF_043	1	0	0	n/a	0	0	819.9090558	820.0090481	0.0999923
25323.25	0.0999888	319	foods\fries.jpg	1	3	1	fries	1	126	TF_094	0	0	0	n/a	0	0	820.0590573	820.1590461	0.0999888
25360.75	0.0999885	320	non_foods\stim064_animate_mammal_cow_4.png	1	3	1	cow_4	0	97	n/a	NaN	0	0	n/a	0	0	820.2090516	820.3090401	0.0999885
25398.25	0.0999989	321	non_foods\stim141_inanimate_tools_broom_1.png	1	3	1	broom_1	0	30	n/a	NaN	0	0	n/a	0	0	820.3590456	820.4590445	0.0999989
25435.75	0.0999877	322	foods\oven-roasted_tomatoes.jpg	1	3	1	oven-roasted_tomatoes	1	203	TF_114	0	0	0	n/a	0	0	820.5090535	820.6090412	0.0999877
25473.25	0.0999951	323	non_foods\stim091_inanimate_clothing_jeans_3.png	1	3	1	jeans_3	0	166	n/a	NaN	0	0	n/a	0	0	820.6590428	820.7590379	0.0999951
25510.75	0.0999875	324	foods\watermelon.jpg	1	3	1	watermelon	1	309	NF_005	1	0	0	n/a	0	0	820.8090504	820.9090379	0.0999875
25548.25	0.0999802	325	non_foods\stim039_animate_human_sports_3.png	1	3	1	sports_3	0	280	n/a	NaN	0	0	n/a	0	0	820.959074	821.0590542	0.0999802
25585.75	0.1000025	326	non_foods\stim140_inanimate_plants_tulip_4.png	1	3	1	tulip_4	0	306	n/a	NaN	0	0	n/a	0	0	821.1090346	821.2090371	0.1000025
25623.25	0.1000026	327	non_foods\stim013_animate_bird_peacock_1.png	1	3	1	peacock_1	0	219	n/a	NaN	0	0	n/a	0	0	821.2590389	821.3590415	0.1000026
25660.75	0.0999946	328	non_foods\stim034_animate_human_faces_2.png	1	3	1	faces_2	0	118	n/a	NaN	0	0	n/a	0	0	821.4090382	821.5090328	0.0999946
25698.25	0.0999971	329	non_foods\stim054_animate_insect_dragonfly_2.png	1	3	1	dragonfly_2	0	107	n/a	NaN	0	0	n/a	0	0	821.5590347	821.6590318	0.0999971
25735.75	0.0999907	330	non_foods\stim103_inanimate_furniture_bed_3.png	1	3	1	bed_3	0	21	n/a	NaN	0	0	n/a	0	0	821.7090378	821.8090285	0.0999907
25773.25	0.0999974	331	non_foods\stim147_inanimate_tools_hammer_3.png	1	3	1	hammer_3	0	153	n/a	NaN	0	0	n/a	0	0	821.8590293	821.9590267	0.0999974
25810.75	0.1000088	332	foods\broccoli.jpg	1	3	1	broccoli	1	29	NF_016	1	0	0	n/a	0	0	822.0090401	822.1090489	0.1000088
25848.25	0.0999907	333	foods\honey.jpg	1	3	1	honey	1	160	NF_062	1	0	0	n/a	0	0	822.1590376	822.2590283	0.0999907
25885.75	0.0999926	334	foods\papaya.jpg	1	3	1	papaya	1	210	NF_069	1	0	0	n/a	0	0	822.3090339	822.4090265	0.0999926
25923.25	0.0999859	335	foods\apricot.jpg	1	3	1	apricot	1	6	NF_002	1	0	0	n/a	0	0	822.4590349	822.5590208	0.0999859
25960.75	0.0999976	336	foods\lettuce.jpg	1	3	1	lettuce	1	178	NF_046	1	0	0	n/a	0	0	822.6090298	822.7090274	0.0999976
25998.25	0.0999888	337	foods\red_cabbage.jpg	1	3	1	red_cabbage	1	245	NF_023	1	0	0	n/a	0	0	822.7590324	822.8590212	0.0999888
26035.75	0.0999959	338	non_foods\stim005_animate_bird_duck_1.png	1	3	1	duck_1	0	111	n/a	NaN	0	0	n/a	0	0	822.9090237	823.0090196	0.0999959
26073.25	0.0999916	339	foods\ice_cream_sandwich.jpg	1	3	1	ice_cream_sandwich	1	163	TF_061	0	0	0	n/a	0	0	823.0590264	823.159018	0.0999916
26110.75	0.0999841	340	foods\beetroots.jpg	1	3	1	beetroots	1	23	NF_015	1	0	0	n/a	0	0	823.20903	823.3090141	0.0999841
26148.25	0.0999933	341	non_foods\stim114_inanimate_furniture_sofa_2.png	1	3	1	sofa_2	0	272	n/a	NaN	0	0	n/a	0	0	823.3590204	823.4590137	0.0999933
26185.75	0.0999941	342	non_foods\stim135_inanimate_plants_tree_3.png	1	3	1	tree_3	0	301	n/a	NaN	0	0	n/a	0	0	823.5090201	823.6090142	0.0999941
26223.25	0.0999934	343	non_foods\stim101_inanimate_furniture_bed_1.png	1	3	1	bed_1	0	19	n/a	NaN	0	0	n/a	0	0	823.6590214	823.7590148	0.0999934
26260.75	0.1000064	344	foods\brussel_sprouts.jpg	1	3	1	brussel_sprouts	1	35	NF_021	1	0	0	n/a	0	0	823.8090212	823.9090276	0.1000064
26298.25	0.0999891	345	foods\tomato.jpg	1	3	1	tomato	1	298	NF_084	1	0	0	n/a	0	0	823.9590213	824.0590104	0.0999891
26335.75	0.0999933	346	non_foods\stim094_inanimate_clothing_shirt_2.png	1	3	1	shirt_2	0	263	n/a	NaN	1	0	n/a	0	0	824.109014	824.2090073	0.0999933
26373.25	0.09999	347	foods\capsicum.jpg	1	3	1	capsicum	1	55	NF_076	1	0	0	n/a	0	0	824.259018	824.359008	0.09999
26410.75	0.1000113	348	non_foods\stim043_animate_insect_ant_3.png	1	3	1	ant_3	0	3	n/a	NaN	0	1	d	0.3001825	1	824.409013	824.5090243	0.1000113
26448.25	0.0999775	349	non_foods\stim115_inanimate_furniture_sofa_3.png	1	3	1	sofa_3	0	273	n/a	NaN	0	0	n/a	0	0	824.5590275	824.659005	0.0999775
26485.75	0.0999886	350	foods\figs.jpg	1	3	1	figs	1	122	NF_035	1	0	0	n/a	0	0	824.7090171	824.8090057	0.0999886
26523.25	0.0999904	351	non_foods\stim132_inanimate_plants_sunflower_4.png	1	3	1	sunflower_4	0	289	n/a	NaN	0	0	n/a	0	0	824.8590111	824.9590015	0.0999904
26560.75	0.0999935	352	foods\apple.jpg	1	3	1	apple	1	5	NF_055	1	0	0	n/a	0	0	825.0090096	825.1090031	0.0999935
26598.25	0.0999899	353	foods\coffee_beans.jpg	1	3	1	coffee_beans	1	90	TF_029	0	0	0	n/a	0	0	825.1590099	825.2589998	0.0999899
26635.75	0.0999943	354	non_foods\stim009_animate_bird_parrot_1.png	1	3	1	parrot_1	0	212	n/a	NaN	0	0	n/a	0	0	825.3090022	825.4089965	0.0999943
26673.25	0.0999978	355	non_foods\stim102_inanimate_furniture_bed_2.png	1	3	1	bed_2	0	20	n/a	NaN	0	0	n/a	0	0	825.4590009	825.5589987	0.0999978
26710.75	0.0999899	356	foods\banana.jpg	1	3	1	banana	1	18	NF_013	1	0	0	n/a	0	0	825.6090065	825.7089964	0.0999899
26748.25	0.1000002	357	non_foods\stim088_inanimate_clothing_hat_4.png	1	3	1	hat_4	0	158	n/a	NaN	0	0	n/a	0	0	825.758997	825.8589972	0.1000002
26785.75	0.0999897	358	foods\chocolate_bar.jpg	1	3	1	chocolate_bar	1	75	TF_033	0	0	0	n/a	0	0	825.9090052	826.0089949	0.0999897
26823.25	0.0999812	359	foods\lemon.jpg	1	3	1	lemon	1	175	NF_049	1	0	0	n/a	0	0	826.0590032	826.1589844	0.0999812
26860.75	0.1000176	360	non_foods\stim037_animate_human_sports_1.png	1	3	1	sports_1	0	278	n/a	NaN	0	0	n/a	0	0	826.2089844	826.309002	0.1000176
26898.25	0.0999796	361	foods\chilli.jpg	1	3	1	chilli	1	74	NF_073	1	0	0	n/a	0	0	826.3590009	826.4589805	0.0999796
26935.75	0.0999763	362	foods\blackberry.jpg	1	3	1	blackberry	1	24	NF_063	1	0	0	n/a	0	0	826.5089929	826.6089692	0.0999763
26973.25	0.0999781	363	non_foods\stim049_animate_insect_butterfly_1.png	1	3	1	butterfly_1	0	44	n/a	NaN	0	0	n/a	0	0	826.6589947	826.7589728	0.0999781
27010.75	0.0999922	364	non_foods\stim024_animate_human_baby_4.png	1	3	1	baby_4	0	13	n/a	NaN	0	0	n/a	0	0	826.8089911	826.9089833	0.0999922
27048.25	0.0999924	365	non_foods\stim015_animate_bird_peacock_3.png	1	3	1	peacock_3	0	221	n/a	NaN	0	0	n/a	0	0	826.9589907	827.0589831	0.0999924
27085.75	0.0999932	366	non_foods\stim060_animate_insect_grasshopper_4.png	1	3	1	grasshopper_4	0	146	n/a	NaN	0	0	n/a	0	0	827.1089871	827.2089803	0.0999932
27123.25	0.0999909	367	non_foods\stim011_animate_bird_parrot_3.png	1	3	1	parrot_3	0	214	n/a	NaN	0	0	n/a	0	0	827.2589867	827.3589776	0.0999909
27160.75	0.1000108	368	non_foods\stim075_animate_mammal_monkey_3.png	1	3	1	monkey_3	0	190	n/a	NaN	0	0	n/a	0	0	827.4089886	827.5089994	0.1000108
27198.25	0.0999987	369	non_foods\stim124_inanimate_plants_bush_4.png	1	3	1	bush_4	0	43	n/a	NaN	0	0	n/a	0	0	827.558981	827.6589797	0.0999987
27235.75	0.0999893	370	foods\ice_cream.jpg	1	3	1	ice_cream	1	162	TF_062	0	0	0	n/a	0	0	827.7089884	827.8089777	0.0999893
27273.25	0.0999895	371	foods\minestrone_soup.jpg	1	3	1	minestrone_soup	1	187	TF_160	0	0	0	n/a	0	0	827.8589872	827.9589767	0.0999895
27310.75	0.1000015	372	foods\pork_loin_with_peas.jpg	1	3	1	pork_loin_with_peas	1	234	TF_003	0	0	0	n/a	0	0	828.0089827	828.1089842	0.1000015
27348.25	0.0999779	373	non_foods\stim052_animate_insect_butterfly_4.png	1	3	1	butterfly_4	0	47	n/a	NaN	0	0	n/a	0	0	828.1589967	828.2589746	0.0999779
27385.75	0.0999873	374	foods\red_beans.jpg	1	3	1	red_beans	1	244	NF_033	1	0	0	n/a	0	0	828.308983	828.4089703	0.0999873
27423.25	0.0999928	375	foods\rockmelon.jpg	1	3	1	rockmelon	1	254	NF_060	1	0	0	n/a	0	0	828.4589792	828.558972	0.0999928
27460.75	0.0999908	376	foods\meatballs.jpg	1	3	1	meatballs	1	186	TF_112	0	0	0	n/a	0	0	828.608981	828.7089718	0.0999908
27498.25	0.0999898	377	foods\calamari.jpg	1	3	1	calamari	1	53	TF_019	0	0	0	n/a	0	0	828.7589778	828.8589676	0.0999898
27535.75	0.0999924	378	foods\spaghetti_with_olives_and_capers.jpg	1	3	1	spaghetti_with_olives_and_capers	1	276	TF_135	0	0	0	n/a	0	0	828.9089776	829.00897	0.0999924
27573.25	0.099997	379	non_foods\stim137_inanimate_plants_tulip_1.png	1	3	1	tulip_1	0	303	n/a	NaN	0	0	n/a	0	0	829.0589675	829.1589645	0.099997
27610.75	0.0999761	380	foods\pancakes.jpg	1	3	1	pancakes	1	209	TF_058	0	0	0	n/a	0	0	829.2089863	829.3089624	0.0999761
27648.25	0.0999914	381	non_foods\stim028_animate_human_child_4.png	1	3	1	child_4	0	73	n/a	NaN	0	0	n/a	0	0	829.3589726	829.458964	0.0999914
27685.75	0.0999934	382	non_foods\stim139_inanimate_plants_tulip_3.png	1	3	1	tulip_3	0	305	n/a	NaN	0	0	n/a	0	0	829.5089661	829.6089595	0.0999934
27723.25	0.1000009	383	non_foods\stim026_animate_human_child_2.png	1	3	1	child_2	0	71	n/a	NaN	0	0	n/a	0	0	829.6589638	829.7589647	0.1000009
27760.75	0.1000018	384	non_foods\stim156_inanimate_tools_scissors_4.png	1	3	1	scissors_4	0	261	n/a	NaN	0	0	n/a	0	0	829.8089701	829.9089719	0.1000018
27798.25	0.0999923	385	non_foods\stim096_inanimate_clothing_shirt_4.png	1	3	1	shirt_4	0	265	n/a	NaN	0	0	n/a	0	0	829.9589632	830.0589555	0.0999923
27835.75	0.0999817	386	foods\chestnut.jpg	1	3	1	chestnut	1	65	NF_020	1	0	0	n/a	0	0	830.108967	830.2089487	0.0999817
27873.25	0.0999884	387	foods\cherry.jpg	1	3	1	cherry	1	64	NF_027	1	0	0	n/a	0	0	830.2589659	830.3589543	0.0999884
27910.75	0.09999	388	foods\toast.jpg	1	3	1	toast	1	296	TF_053	0	0	0	n/a	0	0	830.4089642	830.5089542	0.09999
27948.25	0.0999861	389	foods\waffle.jpg	1	3	1	waffle	1	308	TF_030	0	0	0	n/a	0	0	830.5589662	830.6589523	0.0999861
27985.75	0.0999855	390	foods\wafer.jpg	1	3	1	wafer	1	307	TF_155	0	0	0	n/a	0	0	830.7089648	830.8089503	0.0999855
28023.25	0.0999914	391	foods\cuttlefish.jpg	1	3	1	cuttlefish	1	103	NF_093	1	0	0	n/a	0	0	830.8589598	830.9589512	0.0999914
28060.75	0.0999572	392	non_foods\stim053_animate_insect_dragonfly_1.png	1	3	1	dragonfly_1	0	106	n/a	NaN	0	0	n/a	0	0	831.008981	831.1089382	0.0999572
28098.25	0.0999924	393	foods\corncob.jpg	1	3	1	corncob	1	93	NF_051	1	0	0	n/a	0	0	831.1589576	831.25895	0.0999924
28135.75	0.0999993	394	non_foods\stim002_animate_bird_chicken_2.png	1	3	1	chicken_2	0	67	n/a	NaN	0	0	n/a	0	0	831.3089477	831.408947	0.0999993
28173.25	0.0999943	395	non_foods\stim003_animate_bird_chicken_3.png	1	3	1	chicken_3	0	68	n/a	NaN	0	0	n/a	0	0	831.4589494	831.5589437	0.0999943
28210.75	0.1000118	396	non_foods\stim073_animate_mammal_monkey_1.png	1	3	1	monkey_1	0	188	n/a	NaN	0	0	n/a	0	0	831.6089522	831.708964	0.1000118
28248.25	0.0999906	397	foods\pomegranate.jpg	1	3	1	pomegranate	1	232	NF_058	1	0	0	n/a	0	0	831.7589532	831.8589438	0.0999906
28285.75	0.0999958	398	non_foods\stim149_inanimate_tools_pan_1.png	1	3	1	pan_1	0	205	n/a	NaN	0	0	n/a	0	0	831.9089448	832.0089406	0.0999958
28323.25	0.0999874	399	foods\chocolate_pralines.jpg	1	3	1	chocolate_pralines	1	77	TF_035	0	0	0	n/a	0	0	832.0589517	832.1589391	0.0999874
28360.75	0.0999841	400	foods\potato_and_green_bean_salad.jpg	1	3	1	potato_and_green_bean_salad	1	235	TF_072	0	0	0	n/a	0	0	832.2089513	832.3089354	0.0999841
28398.25	0.0999917	401	foods\green_olives.jpg	1	3	1	green_olives	1	148	TF_085	0	0	1	d	0	0	832.3589455	832.4589372	0.0999917
28435.75	0.0999912	402	foods\mandarin.jpg	1	3	1	mandarin	1	184	NF_052	1	0	0	n/a	0	0	832.5089459	832.6089371	0.0999912
28473.25	0.100012	403	non_foods\stim057_animate_insect_grasshopper_1.png	1	3	1	grasshopper_1	0	143	n/a	NaN	0	0	n/a	0	0	832.6589392	832.7589512	0.100012
28510.75	0.100021	404	non_foods\stim021_animate_human_baby_1.png	1	3	1	baby_1	0	10	n/a	NaN	0	0	n/a	0	0	832.8089338	832.9089548	0.100021
28548.25	0.0999896	405	foods\carrot.jpg	1	3	1	carrot	1	56	NF_019	1	0	0	n/a	0	0	832.9589414	833.058931	0.0999896
28585.75	0.100005	406	non_foods\stim042_animate_insect_ant_2.png	1	3	1	ant_2	0	2	n/a	NaN	0	0	n/a	0	0	833.1089221	833.2089271	0.100005
28623.25	0.0999955	407	foods\risotto_with_peas_and_asparagus_tips.jpg	1	3	1	risotto_with_peas_and_asparagus_tips	1	252	TF_123	0	0	0	n/a	0	0	833.2589387	833.3589342	0.0999955
28660.75	0.0999661	408	foods\potatoes.jpg	1	3	1	potatoes	1	237	NF_071	1	0	0	n/a	0	0	833.4089635	833.5089296	0.0999661
28698.25	0.0999946	409	non_foods\stim063_animate_mammal_cow_3.png	1	3	1	cow_3	0	96	n/a	NaN	0	0	n/a	0	0	833.5589298	833.6589244	0.0999946
28735.75	0.0999959	410	non_foods\stim138_inanimate_plants_tulip_2.png	1	3	1	tulip_2	0	304	n/a	NaN	0	0	n/a	0	0	833.7089296	833.8089255	0.0999959
28773.25	0.0999862	411	foods\toasted_bread_with_tomatoes.jpg	1	3	1	toasted_bread_with_tomatoes	1	297	TF_017	0	0	0	n/a	0	0	833.8589352	833.9589214	0.0999862
28810.75	0.0999883	412	non_foods\stim086_inanimate_clothing_hat_2.png	1	3	1	hat_2	0	156	n/a	NaN	0	0	n/a	0	0	834.0089287	834.108917	0.0999883
28848.25	0.0999971	413	non_foods\stim090_inanimate_clothing_jeans_2.png	1	3	1	jeans_2	0	165	n/a	NaN	0	0	n/a	0	0	834.1589261	834.2589232	0.0999971
28885.75	0.0999952	414	non_foods\stim072_animate_mammal_kangaroo_4.png	1	3	1	kangaroo_4	0	171	n/a	NaN	0	0	n/a	0	0	834.3089228	834.408918	0.0999952
28923.25	0.1000049	415	foods\prawn.jpg	1	3	1	prawn	1	238	NF_041	1	0	0	n/a	0	0	834.4589259	834.5589308	0.1000049
28960.75	0.0999959	416	non_foods\stim004_animate_bird_chicken_4.png	1	3	1	chicken_4	0	69	n/a	NaN	0	0	n/a	0	0	834.6089237	834.7089196	0.0999959
28998.25	0.0999882	417	foods\radish.jpg	1	3	1	radish	1	240	NF_090	1	0	0	n/a	0	0	834.7589252	834.8589134	0.0999882
29035.75	0.0999896	418	foods\croissant.jpg	1	3	1	croissant	1	100	TF_037	0	0	0	n/a	0	0	834.9089263	835.0089159	0.0999896
29073.25	0.0999952	419	foods\cinnamon_sroll.jpg	1	3	1	cinnamon_sroll	1	80	TF_021	0	0	0	n/a	0	0	835.0589227	835.1589179	0.0999952
29110.75	0.0999728	420	foods\cannoli.jpg	1	3	1	cannoli	1	54	TF_022	0	1	0	n/a	0	0	835.2089405	835.3089133	0.0999728
29148.25	0.0999941	421	non_foods\stim116_inanimate_furniture_sofa_4.png	1	3	1	sofa_4	0	274	n/a	NaN	0	0	n/a	0	0	835.3589134	835.4589075	0.0999941
29185.75	0.0999926	422	non_foods\stim099_inanimate_clothing_socks_3.png	1	3	1	socks_3	0	269	n/a	NaN	0	1	d	0.3920682	1	835.5089161	835.6089087	0.0999926
29223.25	0.1000005	423	foods\pasta_carbonara.jpg	1	3	1	pasta_carbonara	1	216	TF_027	0	0	0	n/a	0	0	835.6589137	835.7589142	0.1000005
29260.75	0.0999927	424	non_foods\stim136_inanimate_plants_tree_4.png	1	3	1	tree_4	0	302	n/a	NaN	0	0	n/a	0	0	835.8089128	835.9089055	0.0999927
29298.25	0.0999805	425	foods\cabbage.jpg	1	3	1	cabbage	1	48	NF_025	1	0	0	n/a	0	0	835.9589237	836.0589042	0.0999805
29335.75	0.0999885	426	foods\hotdog.jpg	1	3	1	hotdog	1	161	TF_070	0	0	0	n/a	0	0	836.108916	836.2089045	0.0999885
29373.25	0.100008	427	non_foods\stim113_inanimate_furniture_sofa_1.png	1	3	1	sofa_1	0	271	n/a	NaN	0	0	n/a	0	0	836.2589082	836.3589162	0.100008
29410.75	0.0999886	428	foods\lemon_meringue_pie.jpg	1	3	1	lemon_meringue_pie	1	176	TF_151	0	0	0	n/a	0	0	836.4089144	836.508903	0.0999886
29448.25	0.0999893	429	foods\strawberry.jpg	1	3	1	strawberry	1	285	NF_037	1	0	0	n/a	0	0	836.5589091	836.6588984	0.0999893
29485.75	0.0999935	430	non_foods\stim154_inanimate_tools_scissors_2.png	1	3	1	scissors_2	0	259	n/a	NaN	0	0	n/a	0	0	836.7089066	836.8089001	0.0999935
29523.25	0.0999932	431	non_foods\stim106_inanimate_furniture_chair_2.png	1	3	1	chair_2	0	61	n/a	NaN	0	0	n/a	0	0	836.8589067	836.9588999	0.0999932
29560.75	0.0999733	432	foods\frankfurters.jpg	1	3	1	frankfurters	1	123	TF_156	0	0	0	n/a	0	0	837.0089262	837.1088995	0.0999733
29598.25	0.1000075	433	foods\donut.jpg	1	3	1	donut	1	105	TF_032	0	0	0	n/a	0	0	837.1589063	837.2589138	0.1000075
29635.75	0.0999962	434	non_foods\stim048_animate_insect_bug_4.png	1	3	1	bug_4	0	39	n/a	NaN	0	0	n/a	0	0	837.3088958	837.408892	0.0999962
29673.25	0.0999979	435	non_foods\stim040_animate_human_sports_4.png	1	3	1	sports_4	0	281	n/a	NaN	0	0	n/a	0	0	837.4588951	837.558893	0.0999979
29710.75	0.0999886	436	foods\pickles.jpg	1	3	1	pickles	1	230	TF_134	0	0	0	n/a	0	0	837.6089023	837.7088909	0.0999886
29748.25	0.1	437	non_foods\stim146_inanimate_tools_hammer_2.png	1	3	1	hammer_2	0	152	n/a	NaN	0	0	n/a	0	0	837.7588905	837.8588905	0.1
29785.75	0.0999983	438	non_foods\stim047_animate_insect_bug_3.png	1	3	1	bug_3	0	38	n/a	NaN	0	0	n/a	0	0	837.908893	838.0088913	0.0999983
29823.25	0.099995	439	foods\kiwi.jpg	1	3	1	kiwi	1	172	NF_044	1	0	0	n/a	0	0	838.0588956	838.1588906	0.099995
29860.75	0.1000007	440	non_foods\stim089_inanimate_clothing_jeans_1.png	1	3	1	jeans_1	0	164	n/a	NaN	0	0	n/a	0	0	838.2088877	838.3088884	0.1000007
29898.25	0.0999925	441	non_foods\stim120_inanimate_furniture_table_4.png	1	3	1	table_4	0	294	n/a	NaN	0	0	n/a	0	0	838.3588907	838.4588832	0.0999925
29935.75	0.0999926	442	non_foods\stim108_inanimate_furniture_chair_4.png	1	3	1	chair_4	0	63	n/a	NaN	0	0	n/a	0	0	838.50889	838.6088826	0.0999926
29973.25	0.1000182	443	non_foods\stim023_animate_human_baby_3.png	1	3	1	baby_3	0	12	n/a	NaN	0	0	n/a	0	0	838.658888	838.7589062	0.1000182
30010.75	0.0999695	444	foods\fruit_pie.jpg	1	3	1	fruit_pie	1	128	TF_147	0	0	0	n/a	0	0	838.8089107	838.9088802	0.0999695
30048.25	0.0999889	445	foods\cauliflower.jpg	1	3	1	cauliflower	1	57	NF_022	1	0	0	n/a	0	0	838.95889	839.0588789	0.0999889
30085.75	0.0999871	446	foods\green_beans.jpg	1	3	1	green_beans	1	147	NF_034	1	0	0	n/a	0	0	839.1088894	839.2088765	0.0999871
30123.25	0.0999884	447	foods\pea_pod.jpg	1	3	1	pea_pod	1	217	NF_082	1	0	0	n/a	0	0	839.2588869	839.3588753	0.0999884
30160.75	0.0999978	448	non_foods\stim093_inanimate_clothing_shirt_1.png	1	3	1	shirt_1	0	262	n/a	NaN	0	0	n/a	0	0	839.4088789	839.5088767	0.0999978
30198.25	0.0999868	449	foods\bread_roll.jpg	1	3	1	bread_roll	1	27	TF_090	0	0	0	n/a	0	0	839.5588863	839.6588731	0.0999868
30235.75	0.099994	450	non_foods\stim065_animate_mammal_giraffe_1.png	1	3	1	giraffe_1	0	132	n/a	NaN	0	0	n/a	0	0	839.7088796	839.8088736	0.099994
30273.25	0.0999805	451	non_foods\stim036_animate_human_faces_4.png	1	3	1	faces_4	0	120	n/a	NaN	0	0	n/a	0	0	839.8588937	839.9588742	0.0999805
30310.75	0.099996	452	non_foods\stim068_animate_mammal_giraffe_4.png	1	3	1	giraffe_4	0	135	n/a	NaN	0	0	n/a	0	0	840.0088737	840.1088697	0.099996
30348.25	0.0999979	453	non_foods\stim056_animate_insect_dragonfly_4.png	1	3	1	dragonfly_4	0	109	n/a	NaN	0	0	n/a	0	0	840.1588742	840.2588721	0.0999979
30385.75	0.0999941	454	non_foods\stim129_inanimate_plants_sunflower_1.png	1	3	1	sunflower_1	0	286	n/a	NaN	0	0	n/a	0	0	840.3088753	840.4088694	0.0999941
30423.25	0.1000097	455	non_foods\stim126_inanimate_plants_cactus_2.png	1	3	1	cactus_2	0	50	n/a	NaN	0	0	n/a	0	0	840.4588768	840.5588865	0.1000097
30460.75	0.0999987	456	foods\avocado.jpg	1	3	1	avocado	1	9	NF_012	1	0	0	n/a	0	0	840.608873	840.7088717	0.0999987
30498.25	0.0999916	457	non_foods\stim029_animate_human_clown_1.png	1	3	1	clown_1	0	85	n/a	NaN	0	0	n/a	0	0	840.7588689	840.8588605	0.0999916
30535.75	0.0999966	458	non_foods\stim055_animate_insect_dragonfly_3.png	1	3	1	dragonfly_3	0	108	n/a	NaN	0	0	n/a	0	0	840.908867	841.0088636	0.0999966
30573.25	0.0999949	459	non_foods\stim150_inanimate_tools_pan_2.png	1	3	1	pan_2	0	206	n/a	NaN	1	0	n/a	0	0	841.0588671	841.158862	0.0999949
30610.75	0.0999881	460	foods\grapes.jpg	1	3	1	grapes	1	142	NF_098	1	0	0	n/a	0	0	841.2088713	841.3088594	0.0999881
30648.25	0.0999992	461	non_foods\stim143_inanimate_tools_broom_3.png	1	3	1	broom_3	0	32	n/a	NaN	0	1	d	0.3920885	1	841.3588599	841.4588591	0.0999992
30685.75	0.0999892	462	foods\brownie.jpg	1	3	1	brownie	1	34	TF_011	0	0	0	n/a	0	0	841.5088701	841.6088593	0.0999892
30723.25	0.0999904	463	foods\pineapple.jpg	1	3	1	pineapple	1	231	NF_004	1	0	0	n/a	0	0	841.6588686	841.758859	0.0999904
30760.75	0.0999997	464	non_foods\stim158_inanimate_tools_wrench_2.png	1	3	1	wrench_2	0	311	n/a	NaN	0	0	n/a	0	0	841.8088556	841.9088553	0.0999997
30798.25	0.0999863	465	foods\hamburger.jpg	1	3	1	hamburger	1	150	TF_069	0	0	0	n/a	0	0	841.9588665	842.0588528	0.0999863
30835.75	0.0999978	466	non_foods\stim010_animate_bird_parrot_2.png	1	3	1	parrot_2	0	213	n/a	NaN	0	0	n/a	0	0	842.1088522	842.20885	0.0999978
30873.25	0.1000058	467	foods\chocolate_pudding.jpg	1	3	1	chocolate_pudding	1	78	TF_018	0	0	0	n/a	0	0	842.2588674	842.3588732	0.1000058
30910.75	0.0999887	468	foods\cereal.jpg	1	3	1	cereal	1	59	TF_028	0	0	0	n/a	0	0	842.4088606	842.5088493	0.0999887
30948.25	0.0999928	469	foods\baguette.jpg	1	3	1	baguette	1	15	TF_006	0	0	0	n/a	0	0	842.5588569	842.6588497	0.0999928
30985.75	0.0999923	470	non_foods\stim130_inanimate_plants_sunflower_2.png	1	3	1	sunflower_2	0	287	n/a	NaN	0	0	n/a	0	0	842.7088513	842.8088436	0.0999923
33948.25	0.0999805	471	foods\raw_sausage.jpg	1	4	1	raw_sausage	1	243	TF_131	0	0	0	n/a	0	0	854.5587678	854.6587483	0.0999805
33985.75	0.0999868	472	non_foods\stim131_inanimate_plants_sunflower_3.png	1	4	1	sunflower_3	0	288	n/a	NaN	0	0	n/a	0	0	854.7087474	854.8087342	0.0999868
34023.25	0.100024	473	non_foods\stim031_animate_human_clown_3.png	1	4	1	clown_3	0	87	n/a	NaN	0	0	n/a	0	0	854.8587231	854.9587471	0.100024
34060.75	0.0999915	474	foods\peach.jpg	1	4	1	peach	1	218	NF_079	1	0	0	n/a	0	0	855.0087543	855.1087458	0.0999915
34098.25	0.0999869	475	foods\almonds.jpg	1	4	1	almonds	1	0	NF_053	1	0	0	n/a	0	0	855.1587507	855.2587376	0.0999869
34135.75	0.0999869	476	foods\egg.jpg	1	4	1	egg	1	115	NF_095	1	0	0	n/a	0	0	855.3087502	855.4087371	0.0999869
34173.25	0.1000221	477	non_foods\stim069_animate_mammal_kangaroo_1.png	1	4	1	kangaroo_1	0	168	n/a	NaN	0	0	n/a	0	0	855.4587412	855.5587633	0.1000221
34210.75	0.0999905	478	foods\hazelnuts.jpg	1	4	1	hazelnuts	1	159	NF_065	1	0	0	n/a	0	0	855.6087487	855.7087392	0.0999905
34248.25	0.0999901	479	non_foods\stim111_inanimate_furniture_closet_3.png	1	4	1	closet_3	0	83	n/a	NaN	0	0	n/a	0	0	855.7587434	855.8587335	0.0999901
34285.75	0.0999893	480	foods\steak.jpg	1	4	1	steak	1	283	TF_013	0	0	0	n/a	0	0	855.908742	856.0087313	0.0999893
34323.25	0.1000055	481	non_foods\stim062_animate_mammal_cow_2.png	1	4	1	cow_2	0	95	n/a	NaN	0	0	n/a	0	0	856.0587379	856.1587434	0.1000055
34360.75	0.0999844	482	non_foods\stim134_inanimate_plants_tree_2.png	1	4	1	tree_2	0	300	n/a	NaN	0	0	n/a	0	0	856.2087352	856.3087196	0.0999844
34398.25	0.1000096	483	non_foods\stim119_inanimate_furniture_table_3.png	1	4	1	table_3	0	293	n/a	NaN	0	0	n/a	0	0	856.3587291	856.4587387	0.1000096
34435.75	0.0999275	484	non_foods\stim016_animate_bird_peacock_4.png	1	4	1	peacock_4	0	222	n/a	NaN	0	0	n/a	0	0	856.5088	856.6087275	0.0999275
34473.25	0.0999959	485	foods\rice_cake.jpg	1	4	1	rice_cake	1	251	TF_059	0	0	0	n/a	0	0	856.6587299	856.7587258	0.0999959
34510.75	0.0999925	486	non_foods\stim006_animate_bird_duck_2.png	1	4	1	duck_2	0	112	n/a	NaN	0	0	n/a	0	0	856.8087395	856.908732	0.0999925
34548.25	0.0999988	487	non_foods\stim079_animate_mammal_rhino_3.png	1	4	1	rhino_3	0	248	n/a	NaN	0	0	n/a	0	0	856.958722	857.0587208	0.0999988
34585.75	0.1000004	488	foods\coconut.jpg	1	4	1	coconut	1	89	NF_030	1	0	0	n/a	0	0	857.1087264	857.2087268	0.1000004
34623.25	0.0999999	489	foods\cupcake.jpg	1	4	1	cupcake	1	102	TF_050	0	0	0	n/a	0	0	857.2587234	857.3587233	0.0999999
34660.75	0.1000107	490	foods\celery.jpg	1	4	1	celery	1	58	NF_092	1	0	0	n/a	0	0	857.4087087	857.5087194	0.1000107
34698.25	0.0999725	491	foods\stew_with_potatoes_and_carrots.jpg	1	4	1	stew_with_potatoes_and_carrots	1	284	TF_139	0	0	0	n/a	0	0	857.5587461	857.6587186	0.0999725
34735.75	0.0999866	492	foods\mushroom.jpg	1	4	1	mushroom	1	194	NF_039	1	0	0	n/a	0	0	857.7087308	857.8087174	0.0999866
34773.25	0.0999903	493	foods\mortadella.jpg	1	4	1	mortadella	1	192	TF_083	0	0	0	n/a	0	0	857.8587263	857.9587166	0.0999903
34810.75	0.0999952	494	non_foods\stim059_animate_insect_grasshopper_3.png	1	4	1	grasshopper_3	0	145	n/a	NaN	0	0	n/a	0	0	858.0087191	858.1087143	0.0999952
34848.25	0.0999867	495	foods\pepperoni_pizza.jpg	1	4	1	pepperoni_pizza	1	229	TF_106	0	0	0	n/a	0	0	858.1587266	858.2587133	0.0999867
34885.75	0.0999994	496	non_foods\stim107_inanimate_furniture_chair_3.png	1	4	1	chair_3	0	62	n/a	NaN	0	0	n/a	0	0	858.3087164	858.4087158	0.0999994
34923.25	0.1000047	497	foods\gnocchi.jpg	1	4	1	gnocchi	1	140	TF_064	0	0	0	n/a	0	0	858.4587173	858.558722	0.1000047
34960.75	0.0999792	498	foods\oyster.jpg	1	4	1	oyster	1	204	NF_067	1	0	0	n/a	0	0	858.6087213	858.7087005	0.0999792
34998.25	0.1000012	499	non_foods\stim083_inanimate_clothing_gloves_3.png	1	4	1	gloves_3	0	138	n/a	NaN	0	0	n/a	0	0	858.758708	858.8587092	0.1000012
35035.75	0.0999883	500	foods\cinnamon.jpg	1	4	1	cinnamon	1	79	NF_017	1	0	0	n/a	0	0	858.9087194	859.0087077	0.0999883
35073.25	0.0999934	501	non_foods\stim152_inanimate_tools_pan_4.png	1	4	1	pan_4	0	208	n/a	NaN	0	0	n/a	0	0	859.0587117	859.1587051	0.0999934
35110.75	0.0999898	502	non_foods\stim070_animate_mammal_kangaroo_2.png	1	4	1	kangaroo_2	0	169	n/a	NaN	0	0	n/a	0	0	859.208708	859.3086978	0.0999898
35148.25	0.1000408	503	non_foods\stim078_animate_mammal_rhino_2.png	1	4	1	rhino_2	0	247	n/a	NaN	0	0	n/a	0	0	859.3587097	859.4587505	0.1000408
35185.75	0.0999912	504	foods\bagel.jpg	1	4	1	bagel	1	14	TF_005	0	0	0	n/a	0	0	859.5087155	859.6087067	0.0999912
35223.25	0.0999863	505	foods\taco.jpg	1	4	1	taco	1	295	TF_141	0	0	0	n/a	0	0	859.6587141	859.7587004	0.0999863
35260.75	0.0999886	506	foods\orange.jpg	1	4	1	orange	1	201	NF_008	1	0	0	n/a	0	0	859.8087087	859.9086973	0.0999886
35298.25	0.0999887	507	foods\museli_bars.jpg	1	4	1	museli_bars	1	193	TF_008	0	0	0	n/a	0	0	859.9587101	860.0586988	0.0999887
35335.75	0.0999832	508	foods\peas.jpg	1	4	1	peas	1	224	NF_081	1	0	0	n/a	0	0	860.1087123	860.2086955	0.0999832
35373.25	0.1000103	509	foods\mango.jpg	1	4	1	mango	1	185	NF_054	1	0	0	n/a	0	0	860.2587023	860.3587126	0.1000103
35410.75	0.0999958	510	foods\ginger_root.jpg	1	4	1	ginger_root	1	131	NF_088	1	0	0	n/a	0	0	860.4086969	860.5086927	0.0999958
35448.25	0.099982	511	non_foods\stim050_animate_insect_butterfly_2.png	1	4	1	butterfly_2	0	45	n/a	NaN	0	0	n/a	0	0	860.5587097	860.6586917	0.099982
35485.75	0.099976	512	non_foods\stim133_inanimate_plants_tree_1.png	1	4	1	tree_1	0	299	n/a	NaN	0	0	n/a	0	0	860.7087188	860.8086948	0.099976
35523.25	0.0999937	513	non_foods\stim087_inanimate_clothing_hat_3.png	1	4	1	hat_3	0	157	n/a	NaN	0	0	n/a	0	0	860.8586989	860.9586926	0.0999937
35560.75	0.1000047	514	non_foods\stim121_inanimate_plants_bush_1.png	1	4	1	bush_1	0	40	n/a	NaN	0	0	n/a	0	0	861.0086958	861.1087005	0.1000047
35598.25	0.0999928	515	non_foods\stim027_animate_human_child_3.png	1	4	1	child_3	0	72	n/a	NaN	0	0	n/a	0	0	861.158696	861.2586888	0.0999928
35635.75	0.0999782	516	foods\blue_cheese.jpg	1	4	1	blue_cheese	1	25	TF_066	0	0	0	n/a	0	0	861.3086968	861.408675	0.0999782
35673.25	0.1000066	517	foods\mussels.jpg	1	4	1	mussels	1	195	TF_042	0	0	0	n/a	0	0	861.4586962	861.5587028	0.1000066
35710.75	0.0999781	518	foods\chocolate_chip_cookies.jpg	1	4	1	chocolate_chip_cookies	1	76	TF_010	0	0	0	n/a	0	0	861.6086974	861.7086755	0.0999781
35748.25	0.0999871	519	non_foods\stim123_inanimate_plants_bush_3.png	1	4	1	bush_3	0	42	n/a	NaN	0	0	n/a	0	0	861.7586879	861.858675	0.0999871
35785.75	0.0999936	520	non_foods\stim044_animate_insect_ant_4.png	1	4	1	ant_4	0	4	n/a	NaN	0	0	n/a	0	0	861.9086858	862.0086794	0.0999936
35823.25	0.099993	521	non_foods\stim045_animate_insect_bug_1.png	1	4	1	bug_1	0	36	n/a	NaN	0	0	n/a	0	0	862.0586856	862.1586786	0.099993
35860.75	0.0999849	522	non_foods\stim041_animate_insect_ant_1.png	1	4	1	ant_1	0	1	n/a	NaN	1	0	n/a	0	0	862.2086857	862.3086706	0.0999849
35898.25	0.0999876	523	non_foods\stim127_inanimate_plants_cactus_3.png	1	4	1	cactus_3	0	51	n/a	NaN	0	0	n/a	0	0	862.3586882	862.4586758	0.0999876
35935.75	0.0999736	524	non_foods\stim076_animate_mammal_monkey_4.png	1	4	1	monkey_4	0	191	n/a	NaN	0	1	d	0.3922029	1	862.5086811	862.6086547	0.0999736
35973.25	0.100007	525	foods\raw_ham.jpg	1	4	1	raw_ham	1	242	TF_117	0	0	0	n/a	0	0	862.6586628	862.7586698	0.100007
36010.75	0.0999961	526	non_foods\stim157_inanimate_tools_wrench_1.png	1	4	1	wrench_1	0	310	n/a	NaN	0	0	n/a	0	0	862.808677	862.9086731	0.0999961
36048.25	0.0999953	527	non_foods\stim092_inanimate_clothing_jeans_4.png	1	4	1	jeans_4	0	167	n/a	NaN	0	0	n/a	0	0	862.9586765	863.0586718	0.0999953
36085.75	0.0999938	528	non_foods\stim061_animate_mammal_cow_1.png	1	4	1	cow_1	0	94	n/a	NaN	0	0	n/a	0	0	863.1086784	863.2086722	0.0999938
36123.25	0.099999	529	non_foods\stim058_animate_insect_grasshopper_2.png	1	4	1	grasshopper_2	0	144	n/a	NaN	0	0	n/a	0	0	863.2586707	863.3586697	0.099999
36160.75	0.0999923	530	non_foods\stim105_inanimate_furniture_chair_1.png	1	4	1	chair_1	0	60	n/a	NaN	0	0	n/a	0	0	863.4086766	863.5086689	0.0999923
36198.25	0.0999682	531	non_foods\stim084_inanimate_clothing_gloves_4.png	1	4	1	gloves_4	0	139	n/a	NaN	0	0	n/a	0	0	863.5587001	863.6586683	0.0999682
36235.75	0.0999853	532	foods\spinach.jpg	1	4	1	spinach	1	277	NF_094	1	0	0	n/a	0	0	863.7086769	863.8086622	0.0999853
36273.25	0.100002	533	non_foods\stim046_animate_insect_bug_2.png	1	4	1	bug_2	0	37	n/a	NaN	0	0	n/a	0	0	863.8586692	863.9586712	0.100002
36310.75	0.0999737	534	foods\bread.jpg	1	4	1	bread	1	26	TF_089	0	0	0	n/a	0	0	864.0086659	864.1086396	0.0999737
36348.25	0.0999877	535	foods\swordfish.jpg	1	4	1	swordfish	1	290	TF_101	0	0	0	n/a	0	0	864.1586781	864.2586658	0.0999877
36385.75	0.0999932	536	non_foods\stim019_animate_bird_penguin_3.png	1	4	1	penguin_3	0	227	n/a	NaN	0	0	n/a	0	0	864.3086661	864.4086593	0.0999932
36423.25	0.1000015	537	non_foods\stim035_animate_human_faces_3.png	1	4	1	faces_3	0	119	n/a	NaN	0	0	n/a	0	0	864.4586679	864.5586694	0.1000015
36460.75	0.0999856	538	foods\baked_lamb_with_potatoes.jpg	1	4	1	baked_lamb_with_potatoes	1	17	TF_001	0	0	0	n/a	0	0	864.6086743	864.7086599	0.0999856
36498.25	0.0999879	539	non_foods\stim128_inanimate_plants_cactus_4.png	1	4	1	cactus_4	0	52	n/a	NaN	0	0	n/a	0	0	864.7586601	864.858648	0.0999879
36535.75	0.1000002	540	non_foods\stim025_animate_human_child_1.png	1	4	1	child_1	0	70	n/a	NaN	0	0	n/a	0	0	864.908658	865.0086582	0.1000002
36573.25	0.0999924	541	foods\fennel.jpg	1	4	1	fennel	1	121	NF_036	1	0	0	n/a	0	0	865.0586681	865.1586605	0.0999924
36610.75	0.0999906	542	foods\pear.jpg	1	4	1	pear	1	223	NF_077	1	0	0	n/a	0	0	865.2086647	865.3086553	0.0999906
36648.25	0.0999796	543	foods\linguine_with_clams.jpg	1	4	1	linguine_with_clams	1	181	TF_077	0	0	0	n/a	0	0	865.3586742	865.4586538	0.0999796
36685.75	0.0999921	544	foods\grilled_chicken_breast.jpg	1	4	1	grilled_chicken_breast	1	149	TF_104	0	0	0	n/a	0	0	865.5086603	865.6086524	0.0999921
36723.25	0.0999736	545	foods\omelette.jpg	1	4	1	omelette	1	199	TF_057	0	0	0	n/a	0	0	865.6586623	865.7586359	0.0999736
36760.75	0.1000063	546	foods\lamb_chops.jpg	1	4	1	lamb_chops	1	173	TF_040	0	0	0	n/a	0	0	865.808643	865.9086493	0.1000063
36798.25	0.099992	547	foods\pork_and_rice.jpg	1	4	1	pork_and_rice	1	233	TF_080	0	0	0	n/a	0	0	865.9586555	866.0586475	0.099992
36835.75	0.0999959	548	non_foods\stim018_animate_bird_penguin_2.png	1	4	1	penguin_2	0	226	n/a	NaN	0	0	n/a	0	0	866.108644	866.2086399	0.0999959
36873.25	0.0999991	549	non_foods\stim030_animate_human_clown_2.png	1	4	1	clown_2	0	86	n/a	NaN	0	0	n/a	0	0	866.2586396	866.3586387	0.0999991
36910.75	0.1000146	550	foods\potato_chips.jpg	1	4	1	potato_chips	1	236	TF_097	0	0	0	n/a	0	0	866.4086269	866.5086415	0.1000146
36948.25	0.0999697	551	foods\dates.jpg	1	4	1	dates	1	104	NF_032	1	0	0	n/a	0	0	866.558665	866.6586347	0.0999697
36985.75	0.0999893	552	foods\cracker.jpg	1	4	1	cracker	1	98	TF_043	0	0	0	n/a	0	0	866.7086492	866.8086385	0.0999893
37023.25	0.0999921	553	foods\salmon.jpg	1	4	1	salmon	1	256	TF_130	0	0	0	n/a	0	0	866.8586503	866.9586424	0.0999921
37060.75	0.0999906	554	foods\oregano.jpg	1	4	1	oregano	1	202	NF_066	1	0	0	n/a	0	0	867.0086498	867.1086404	0.0999906
37098.25	0.0999909	555	foods\garlic.jpg	1	4	1	garlic	1	130	NF_001	1	0	0	n/a	0	0	867.1586475	867.2586384	0.0999909
37135.75	0.0999944	556	non_foods\stim007_animate_bird_duck_3.png	1	4	1	duck_3	0	113	n/a	NaN	0	0	n/a	0	0	867.308643	867.4086374	0.0999944
37173.25	0.1000056	557	foods\fried_calamari.jpg	1	4	1	fried_calamari	1	124	TF_020	0	0	0	n/a	0	0	867.45864	867.5586456	0.1000056
37210.75	0.0999928	558	foods\lentils.jpg	1	4	1	lentils	1	177	NF_047	1	0	0	n/a	0	0	867.6086403	867.7086331	0.0999928
37248.25	0.1000001	559	foods\baked_cod_with_carrots_and_green_beans.jpg	1	4	1	baked_cod_with_carrots_and_green_beans	1	16	TF_082	0	0	0	n/a	0	0	867.758641	867.8586411	0.1000001
37285.75	0.0999848	560	non_foods\stim109_inanimate_furniture_closet_1.png	1	4	1	closet_1	0	81	n/a	NaN	0	0	n/a	0	0	867.9086388	868.0086236	0.0999848
37323.25	0.0999943	561	foods\pumpkin.jpg	1	4	1	pumpkin	1	239	NF_101	1	0	0	n/a	0	0	868.0586297	868.158624	0.0999943
37360.75	0.0999917	562	non_foods\stim100_inanimate_clothing_socks_4.png	1	4	1	socks_4	0	270	n/a	NaN	0	0	n/a	0	0	868.2086287	868.3086204	0.0999917
37398.25	0.099975	563	non_foods\stim020_animate_bird_penguin_4.png	1	4	1	penguin_4	0	228	n/a	NaN	0	0	n/a	0	0	868.3586257	868.4586007	0.099975
37435.75	0.0999952	564	foods\cucumber.jpg	1	4	1	cucumber	1	101	NF_026	1	0	0	n/a	0	0	868.508636	868.6086312	0.0999952
37473.25	0.0999927	565	non_foods\stim074_animate_mammal_monkey_2.png	1	4	1	monkey_2	0	189	n/a	NaN	0	0	n/a	0	0	868.6586315	868.7586242	0.0999927
37510.75	0.1000048	566	non_foods\stim112_inanimate_furniture_closet_4.png	1	4	1	closet_4	0	84	n/a	NaN	0	0	n/a	0	0	868.80863	868.9086348	0.1000048
37548.25	0.0999839	567	foods\octopus.jpg	1	4	1	octopus	1	198	TF_113	0	0	0	n/a	0	0	868.9586355	869.0586194	0.0999839
37585.75	0.0999957	568	foods\cooked_prawn.jpg	1	4	1	cooked_prawn	1	92	TF_060	0	0	0	n/a	0	0	869.1086249	869.2086206	0.0999957
37623.25	0.0999766	569	foods\asparagus.jpg	1	4	1	asparagus	1	8	NF_010	1	0	0	n/a	0	0	869.2586372	869.3586138	0.0999766
37660.75	0.100006	570	non_foods\stim001_animate_bird_chicken_1.png	1	4	1	chicken_1	0	66	n/a	NaN	0	0	n/a	0	0	869.4086134	869.5086194	0.100006
37698.25	0.0999849	571	foods\dried_figs.jpg	1	4	1	dried_figs	1	110	TF_054	0	0	0	n/a	0	0	869.5586355	869.6586204	0.0999849
37735.75	0.099988	572	non_foods\stim038_animate_human_sports_2.png	1	4	1	sports_2	0	279	n/a	NaN	0	0	n/a	0	0	869.7086199	869.8086079	0.099988
37773.25	0.0999949	573	foods\savory_pie.jpg	1	4	1	savory_pie	1	257	TF_146	0	0	0	n/a	0	0	869.8586199	869.9586148	0.0999949
37810.75	0.1000138	574	foods\cream_donuts.jpg	1	4	1	cream_donuts	1	99	TF_014	0	1	0	n/a	0	0	870.0086022	870.108616	0.1000138
37848.25	0.1000008	575	non_foods\stim081_inanimate_clothing_gloves_1.png	1	4	1	gloves_1	0	136	n/a	NaN	0	0	n/a	0	0	870.1586103	870.2586111	0.1000008
37885.75	0.0999975	576	non_foods\stim097_inanimate_clothing_socks_1.png	1	4	1	socks_1	0	267	n/a	NaN	0	1	d	0.3054283	1	870.3086145	870.408612	0.0999975
37923.25	0.100008	577	non_foods\stim104_inanimate_furniture_bed_4.png	1	4	1	bed_4	0	22	n/a	NaN	0	0	n/a	0	0	870.4586172	870.5586252	0.100008
37960.75	0.0999928	578	non_foods\stim071_animate_mammal_kangaroo_3.png	1	4	1	kangaroo_3	0	170	n/a	NaN	0	0	n/a	0	0	870.608616	870.7086088	0.0999928
37998.25	0.0999953	579	non_foods\stim153_inanimate_tools_scissors_1.png	1	4	1	scissors_1	0	258	n/a	NaN	0	0	n/a	0	0	870.7586141	870.8586094	0.0999953
38035.75	0.1000046	580	foods\fried_zucchini.jpg	1	4	1	fried_zucchini	1	125	TF_159	0	0	0	n/a	0	0	870.9086008	871.0086054	0.1000046
38073.25	0.1000294	581	foods\lasagna.jpg	1	4	1	lasagna	1	174	TF_076	0	0	0	n/a	0	0	871.0585944	871.1586238	0.1000294
38110.75	0.0999887	582	foods\roasted_chicken.jpg	1	4	1	roasted_chicken	1	253	TF_109	0	0	0	n/a	0	0	871.2086152	871.3086039	0.0999887
38148.25	0.0999932	583	non_foods\stim148_inanimate_tools_hammer_4.png	1	4	1	hammer_4	0	154	n/a	NaN	0	0	n/a	0	0	871.3586021	871.4585953	0.0999932
38185.75	0.1000067	584	non_foods\stim095_inanimate_clothing_shirt_3.png	1	4	1	shirt_3	0	264	n/a	NaN	0	0	n/a	0	0	871.5086094	871.6086161	0.1000067
38223.25	0.0999913	585	non_foods\stim082_inanimate_clothing_gloves_2.png	1	4	1	gloves_2	0	137	n/a	NaN	0	0	n/a	0	0	871.6586051	871.7585964	0.0999913
38260.75	0.0999892	586	foods\cooked_ham.jpg	1	4	1	cooked_ham	1	91	TF_116	0	0	0	n/a	0	0	871.8086098	871.908599	0.0999892
38298.25	0.0999798	587	non_foods\stim014_animate_bird_peacock_2.png	1	4	1	peacock_2	0	220	n/a	NaN	0	0	n/a	0	0	871.9586055	872.0585853	0.0999798
38335.75	0.0999935	588	non_foods\stim125_inanimate_plants_cactus_1.png	1	4	1	cactus_1	0	49	n/a	NaN	0	0	n/a	0	0	872.1085935	872.208587	0.0999935
38373.25	0.0999782	589	non_foods\stim077_animate_mammal_rhino_1.png	1	4	1	rhino_1	0	246	n/a	NaN	0	0	n/a	0	0	872.2585911	872.3585693	0.0999782
38410.75	0.0999944	590	non_foods\stim067_animate_mammal_giraffe_3.png	1	4	1	giraffe_3	0	134	n/a	NaN	0	0	n/a	0	0	872.408597	872.5085914	0.0999944
38448.25	0.0999751	591	non_foods\stim110_inanimate_furniture_closet_2.png	1	4	1	closet_2	0	82	n/a	NaN	0	0	n/a	0	0	872.558611	872.6585861	0.0999751
38485.75	0.1000001	592	non_foods\stim033_animate_human_faces_1.png	1	4	1	faces_1	0	117	n/a	NaN	0	0	n/a	0	0	872.708593	872.8085931	0.1000001
38523.25	0.0999204	593	foods\lollies.jpg	1	4	1	lollies	1	183	TF_026	0	0	0	n/a	0	0	872.8586658	872.9585862	0.0999204
38560.75	0.09999	594	foods\grapefruits.jpg	1	4	1	grapefruits	1	141	NF_085	1	0	0	n/a	0	0	873.0085978	873.1085878	0.09999
38598.25	0.099993	595	non_foods\stim012_animate_bird_parrot_4.png	1	4	1	parrot_4	0	215	n/a	NaN	0	0	n/a	0	0	873.1585942	873.2585872	0.099993
38635.75	0.0999952	596	non_foods\stim160_inanimate_tools_wrench_4.png	1	4	1	wrench_4	0	313	n/a	NaN	0	0	n/a	0	0	873.3085897	873.4085849	0.0999952
38673.25	0.1000144	597	non_foods\stim085_inanimate_clothing_hat_1.png	1	4	1	hat_1	0	155	n/a	NaN	0	0	n/a	0	0	873.4585951	873.5586095	0.1000144
38710.75	0.0999982	598	non_foods\stim122_inanimate_plants_bush_2.png	1	4	1	bush_2	0	41	n/a	NaN	0	0	n/a	0	0	873.6085854	873.7085836	0.0999982
38748.25	0.0999975	599	non_foods\stim155_inanimate_tools_scissors_3.png	1	4	1	scissors_3	0	260	n/a	NaN	0	0	n/a	0	0	873.7585856	873.8585831	0.0999975
38785.75	0.1000013	600	foods\parmesan_cheese.jpg	1	4	1	parmesan_cheese	1	211	TF_091	0	0	1	d	0	0	873.9085908	874.0085921	0.1000013
38823.25	0.0999946	601	foods\brie.jpg	1	4	1	brie	1	28	TF_016	0	0	0	n/a	0	0	874.0585814	874.158576	0.0999946
38860.75	0.0999958	602	non_foods\stim017_animate_bird_penguin_1.png	1	4	1	penguin_1	0	225	n/a	NaN	0	0	n/a	0	0	874.2085841	874.3085799	0.0999958
38898.25	0.0999886	603	foods\lobster.jpg	1	4	1	lobster	1	182	NF_007	1	0	0	n/a	0	0	874.3585793	874.4585679	0.0999886
38935.75	0.0999807	604	foods\lime.jpg	1	4	1	lime	1	180	NF_048	1	0	0	n/a	0	0	874.5085907	874.6085714	0.0999807
38973.25	0.0999863	605	foods\raisins.jpg	1	4	1	raisins	1	241	NF_096	1	0	0	n/a	0	0	874.6585854	874.7585717	0.0999863
39010.75	0.0999946	606	non_foods\stim142_inanimate_tools_broom_2.png	1	4	1	broom_2	0	31	n/a	NaN	0	0	n/a	0	0	874.8085737	874.9085683	0.0999946
39048.25	0.0999971	607	foods\nougat.jpg	1	4	1	nougat	1	197	TF_144	0	0	0	n/a	0	0	874.9585843	875.0585814	0.0999971
39085.75	0.0999903	608	non_foods\stim022_animate_human_baby_2.png	1	4	1	baby_2	0	11	n/a	NaN	0	0	n/a	0	0	875.1085765	875.2085668	0.0999903
39123.25	0.0999937	609	non_foods\stim098_inanimate_clothing_socks_2.png	1	4	1	socks_2	0	268	n/a	NaN	0	0	n/a	0	0	875.2585748	875.3585685	0.0999937
39160.75	0.0999888	610	foods\licorice.jpg	1	4	1	licorice	1	179	TF_078	0	0	0	n/a	0	0	875.4085814	875.5085702	0.0999888
39198.25	0.0999746	611	non_foods\stim032_animate_human_clown_4.png	1	4	1	clown_4	0	88	n/a	NaN	0	0	n/a	0	0	875.5585822	875.6585568	0.0999746
39235.75	0.1000056	612	non_foods\stim151_inanimate_tools_pan_3.png	1	4	1	pan_3	0	207	n/a	NaN	0	0	n/a	0	0	875.7085592	875.8085648	0.1000056
39273.25	0.0999892	613	foods\eggplant.jpg	1	4	1	eggplant	1	116	NF_059	1	0	0	n/a	0	0	875.8585734	875.9585626	0.0999892
39310.75	0.0999971	614	non_foods\stim159_inanimate_tools_wrench_3.png	1	4	1	wrench_3	0	312	n/a	NaN	0	0	n/a	0	0	876.0085633	876.1085604	0.0999971
39348.25	0.0999897	615	foods\spaghetti_with_meat_sauce.jpg	1	4	1	spaghetti_with_meat_sauce	1	275	TF_137	0	0	0	n/a	0	0	876.1585721	876.2585618	0.0999897
39385.75	0.0999993	616	non_foods\stim117_inanimate_furniture_table_1.png	1	4	1	table_1	0	291	n/a	NaN	0	0	n/a	0	0	876.3085641	876.4085634	0.0999993
39423.25	0.0999994	617	foods\smoked_ham.jpg	1	4	1	smoked_ham	1	266	TF_118	0	0	0	n/a	0	0	876.4585668	876.5585662	0.0999994
39460.75	0.0999965	618	non_foods\stim051_animate_insect_butterfly_3.png	1	4	1	butterfly_3	0	46	n/a	NaN	0	0	n/a	0	0	876.608553	876.7085495	0.0999965
39498.25	0.0999997	619	non_foods\stim145_inanimate_tools_hammer_1.png	1	4	1	hammer_1	0	151	n/a	NaN	0	0	n/a	0	0	876.7585489	876.8585486	0.0999997
39535.75	0.1000153	620	foods\rice.jpg	1	4	1	rice	1	250	TF_121	0	0	0	n/a	0	0	876.9085421	877.0085574	0.1000153
39573.25	0.0999891	621	foods\fruit_flan.jpg	1	4	1	fruit_flan	1	127	TF_093	0	0	0	n/a	0	0	877.0585666	877.1585557	0.0999891
39610.75	0.0999944	622	foods\nectarine.jpg	1	4	1	nectarine	1	196	NF_078	1	0	0	n/a	0	0	877.2085608	877.3085552	0.0999944
39648.25	0.0999866	623	foods\onion.jpg	1	4	1	onion	1	200	NF_029	1	0	0	n/a	0	0	877.3585612	877.4585478	0.0999866
39685.75	0.0999948	624	foods\salami.jpg	1	4	1	salami	1	255	TF_127	0	0	0	n/a	0	0	877.5085563	877.6085511	0.0999948
39723.25	0.0999747	625	foods\spring_onions.jpg	1	4	1	spring_onions	1	282	NF_086	1	0	0	n/a	0	0	877.6585674	877.7585421	0.0999747
39760.75	0.0999902	626	foods\artichoke.jpg	1	4	1	artichoke	1	7	NF_018	1	0	0	n/a	0	0	877.8085527	877.9085429	0.0999902
39798.25	0.0999934	627	non_foods\stim118_inanimate_furniture_table_2.png	1	4	1	table_2	0	292	n/a	NaN	0	0	n/a	0	0	877.9585427	878.0585361	0.0999934
42456.5	0.1000092	628	foods\fried_zucchini.jpg	1	5	1	fried_zucchini	1	125	TF_159	0	0	0	n/a	0	0	888.5918075	888.6918167	0.1000092
42494	0.1000725	629	non_foods\stim156_inanimate_tools_scissors_4.png	1	5	1	scissors_4	0	261	n/a	NaN	0	0	n/a	0	0	888.7418103	888.8418828	0.1000725
42531.5	0.0999802	630	foods\nectarine.jpg	1	5	1	nectarine	1	196	NF_078	1	0	0	n/a	0	0	888.8917968	888.991777	0.0999802
42569	0.0999995	631	foods\avocado.jpg	1	5	1	avocado	1	9	NF_012	1	0	0	n/a	0	0	889.0417866	889.1417861	0.0999995
42606.5	0.1000127	632	foods\ice_cream_sandwich.jpg	1	5	1	ice_cream_sandwich	1	163	TF_061	0	0	0	n/a	0	0	889.1917714	889.2917841	0.1000127
42644	0.0999898	633	foods\honey.jpg	1	5	1	honey	1	160	NF_062	1	0	0	n/a	0	0	889.3417923	889.4417821	0.0999898
42681.5	0.0999896	634	foods\banana.jpg	1	5	1	banana	1	18	NF_013	1	0	0	n/a	0	0	889.4917921	889.5917817	0.0999896
42719	0.0999915	635	non_foods\stim112_inanimate_furniture_closet_4.png	1	5	1	closet_4	0	84	n/a	NaN	0	0	n/a	0	0	889.6417885	889.74178	0.0999915
42756.5	0.1000142	636	foods\pea_pod.jpg	1	5	1	pea_pod	1	217	NF_082	1	0	0	n/a	0	0	889.7917881	889.8918023	0.1000142
42794	0.0999886	637	foods\peas.jpg	1	5	1	peas	1	224	NF_081	1	0	0	n/a	0	0	889.9417892	890.0417778	0.0999886
42831.5	0.0999883	638	foods\spaghetti_with_olives_and_capers.jpg	1	5	1	spaghetti_with_olives_and_capers	1	276	TF_135	0	0	0	n/a	0	0	890.0917898	890.1917781	0.0999883
42869	0.0999964	639	non_foods\stim084_inanimate_clothing_gloves_4.png	1	5	1	gloves_4	0	139	n/a	NaN	0	0	n/a	0	0	890.241778	890.3417744	0.0999964
42906.5	0.100006	640	non_foods\stim024_animate_human_baby_4.png	1	5	1	baby_4	0	13	n/a	NaN	0	0	n/a	0	0	890.3917783	890.4917843	0.100006
42944	0.0999616	641	foods\cucumber.jpg	1	5	1	cucumber	1	101	NF_026	1	0	0	n/a	0	0	890.5418118	890.6417734	0.0999616
42981.5	0.0999957	642	non_foods\stim131_inanimate_plants_sunflower_3.png	1	5	1	sunflower_3	0	288	n/a	NaN	0	0	n/a	0	0	890.6917744	890.7917701	0.0999957
43019	0.099993	643	foods\ginger_root.jpg	1	5	1	ginger_root	1	131	NF_088	1	0	0	n/a	0	0	890.8417777	890.9417707	0.099993
43056.5	0.0999955	644	non_foods\stim139_inanimate_plants_tulip_3.png	1	5	1	tulip_3	0	305	n/a	NaN	0	0	n/a	0	0	890.991774	891.0917695	0.0999955
43094	0.0999994	645	non_foods\stim017_animate_bird_penguin_1.png	1	5	1	penguin_1	0	225	n/a	NaN	0	0	n/a	0	0	891.1417715	891.2417709	0.0999994
43131.5	0.0999927	646	foods\salmon.jpg	1	5	1	salmon	1	256	TF_130	0	0	0	n/a	0	0	891.2917763	891.391769	0.0999927
43169	0.0999903	647	foods\linguine_with_clams.jpg	1	5	1	linguine_with_clams	1	181	TF_077	0	0	0	n/a	0	0	891.4417757	891.541766	0.0999903
43206.5	0.0999722	648	foods\cherry.jpg	1	5	1	cherry	1	64	NF_027	1	0	0	n/a	0	0	891.5917919	891.6917641	0.0999722
43244	0.0999993	649	non_foods\stim138_inanimate_plants_tulip_2.png	1	5	1	tulip_2	0	304	n/a	NaN	0	0	n/a	0	0	891.741766	891.8417653	0.0999993
43281.5	0.0999902	650	foods\lobster.jpg	1	5	1	lobster	1	182	NF_007	1	0	0	n/a	0	0	891.8917724	891.9917626	0.0999902
43319	0.0999888	651	foods\mango.jpg	1	5	1	mango	1	185	NF_054	1	0	0	n/a	0	0	892.04177	892.1417588	0.0999888
43356.5	0.1000161	652	non_foods\stim159_inanimate_tools_wrench_3.png	1	5	1	wrench_3	0	312	n/a	NaN	0	0	n/a	0	0	892.1917644	892.2917805	0.1000161
43394	0.0999798	653	non_foods\stim082_inanimate_clothing_gloves_2.png	1	5	1	gloves_2	0	137	n/a	NaN	0	0	n/a	0	0	892.3417766	892.4417564	0.0999798
43431.5	0.0999963	654	non_foods\stim030_animate_human_clown_2.png	1	5	1	clown_2	0	86	n/a	NaN	0	0	n/a	0	0	892.4917617	892.591758	0.0999963
43469	0.0999966	655	non_foods\stim044_animate_insect_ant_4.png	1	5	1	ant_4	0	4	n/a	NaN	0	0	n/a	0	0	892.6417578	892.7417544	0.0999966
43506.5	0.0999969	656	non_foods\stim073_animate_mammal_monkey_1.png	1	5	1	monkey_1	0	188	n/a	NaN	0	0	n/a	0	0	892.7917572	892.8917541	0.0999969
43544	0.0999866	657	foods\baked_lamb_with_potatoes.jpg	1	5	1	baked_lamb_with_potatoes	1	17	TF_001	0	0	0	n/a	0	0	892.9417632	893.0417498	0.0999866
43581.5	0.0999938	658	non_foods\stim117_inanimate_furniture_table_1.png	1	5	1	table_1	0	291	n/a	NaN	0	0	n/a	0	0	893.0917546	893.1917484	0.0999938
43619	0.0999895	659	foods\mortadella.jpg	1	5	1	mortadella	1	192	TF_083	0	0	0	n/a	0	0	893.2417627	893.3417522	0.0999895
43656.5	0.0999933	660	foods\corncob.jpg	1	5	1	corncob	1	93	NF_051	1	0	0	n/a	0	0	893.3917744	893.4917677	0.0999933
43694	0.099976	661	foods\lasagna.jpg	1	5	1	lasagna	1	174	TF_076	0	0	0	n/a	0	0	893.5417511	893.6417271	0.099976
43731.5	0.0999993	662	non_foods\stim010_animate_bird_parrot_2.png	1	5	1	parrot_2	0	213	n/a	NaN	0	0	n/a	0	0	893.6917478	893.7917471	0.0999993
43769	0.0999963	663	non_foods\stim046_animate_insect_bug_2.png	1	5	1	bug_2	0	37	n/a	NaN	0	0	n/a	0	0	893.8417474	893.9417437	0.0999963
43806.5	0.1000215	664	non_foods\stim142_inanimate_tools_broom_2.png	1	5	1	broom_2	0	31	n/a	NaN	0	0	n/a	0	0	893.9917503	894.0917718	0.1000215
43844	0.0999478	665	foods\pear.jpg	1	5	1	pear	1	223	NF_077	1	0	0	n/a	0	0	894.1417643	894.2417121	0.0999478
43881.5	0.0999865	666	foods\museli_bars.jpg	1	5	1	museli_bars	1	193	TF_008	0	0	0	n/a	0	0	894.2917519	894.3917384	0.0999865
43919	0.0999901	667	foods\apple.jpg	1	5	1	apple	1	5	NF_055	1	0	0	n/a	0	0	894.441752	894.5417421	0.0999901
43956.5	0.0999904	668	foods\potato_chips.jpg	1	5	1	potato_chips	1	236	TF_097	0	0	0	n/a	0	0	894.5917505	894.6917409	0.0999904
43994	0.0999931	669	foods\lamb_chops.jpg	1	5	1	lamb_chops	1	173	TF_040	0	0	0	n/a	0	0	894.7417472	894.8417403	0.0999931
44031.5	0.0999918	670	non_foods\stim093_inanimate_clothing_shirt_1.png	1	5	1	shirt_1	0	262	n/a	NaN	0	0	n/a	0	0	894.8917438	894.9917356	0.0999918
44069	0.0999939	671	non_foods\stim128_inanimate_plants_cactus_4.png	1	5	1	cactus_4	0	52	n/a	NaN	0	0	n/a	0	0	895.0417391	895.141733	0.0999939
44106.5	0.0999922	672	foods\mussels.jpg	1	5	1	mussels	1	195	TF_042	0	0	0	n/a	0	0	895.1917462	895.2917384	0.0999922
44144	0.0999956	673	non_foods\stim004_animate_bird_chicken_4.png	1	5	1	chicken_4	0	69	n/a	NaN	0	0	n/a	0	0	895.3417376	895.4417332	0.0999956
44181.5	0.0999957	674	foods\chocolate_bar.jpg	1	5	1	chocolate_bar	1	75	TF_033	0	0	0	n/a	0	0	895.4917385	895.5917342	0.0999957
44219	0.0999989	675	non_foods\stim062_animate_mammal_cow_2.png	1	5	1	cow_2	0	95	n/a	NaN	0	0	n/a	0	0	895.6417352	895.7417341	0.0999989
44256.5	0.099984	676	non_foods\stim042_animate_insect_ant_2.png	1	5	1	ant_2	0	2	n/a	NaN	0	0	n/a	0	0	895.7917575	895.8917415	0.099984
44294	0.099993	677	foods\fruit_salad.jpg	1	5	1	fruit_salad	1	129	NF_043	1	0	0	n/a	0	0	895.9417351	896.0417281	0.099993
44331.5	0.0999961	678	non_foods\stim119_inanimate_furniture_table_3.png	1	5	1	table_3	0	293	n/a	NaN	0	0	n/a	0	0	896.0917302	896.1917263	0.0999961
44369	0.0999846	679	foods\fennel.jpg	1	5	1	fennel	1	121	NF_036	1	0	0	n/a	0	0	896.2417392	896.3417238	0.0999846
44406.5	0.0999867	680	foods\oregano.jpg	1	5	1	oregano	1	202	NF_066	1	0	0	n/a	0	0	896.3917364	896.4917231	0.0999867
44444	0.0999975	681	non_foods\stim039_animate_human_sports_3.png	1	5	1	sports_3	0	280	n/a	NaN	0	0	n/a	0	0	896.5417236	896.6417211	0.0999975
44481.5	0.0999901	682	foods\pork_loin_with_peas.jpg	1	5	1	pork_loin_with_peas	1	234	TF_003	0	0	0	n/a	0	0	896.6917299	896.79172	0.0999901
44519	0.1000099	683	non_foods\stim083_inanimate_clothing_gloves_3.png	1	5	1	gloves_3	0	138	n/a	NaN	0	0	n/a	0	0	896.8417261	896.941736	0.1000099
44556.5	0.099979	684	foods\gnocchi.jpg	1	5	1	gnocchi	1	140	TF_064	0	0	0	n/a	0	0	896.9917397	897.0917187	0.099979
44594	0.0999949	685	non_foods\stim061_animate_mammal_cow_1.png	1	5	1	cow_1	0	94	n/a	NaN	0	0	n/a	0	0	897.1417239	897.2417188	0.0999949
44631.5	0.0999933	686	non_foods\stim001_animate_bird_chicken_1.png	1	5	1	chicken_1	0	66	n/a	NaN	0	0	n/a	0	0	897.2917234	897.3917167	0.0999933
44669	0.1000015	687	non_foods\stim097_inanimate_clothing_socks_1.png	1	5	1	socks_1	0	267	n/a	NaN	0	0	n/a	0	0	897.4417175	897.541719	0.1000015
44706.5	0.0999707	688	non_foods\stim054_animate_insect_dragonfly_2.png	1	5	1	dragonfly_2	0	107	n/a	NaN	0	0	n/a	0	0	897.59174	897.6917107	0.0999707
44744	0.0999875	689	foods\salami.jpg	1	5	1	salami	1	255	TF_127	0	0	0	n/a	0	0	897.7417217	897.8417092	0.0999875
44781.5	0.0999881	690	foods\eggplant.jpg	1	5	1	eggplant	1	116	NF_059	1	0	0	n/a	0	0	897.891723	897.9917111	0.0999881
44819	0.099999	691	non_foods\stim041_animate_insect_ant_1.png	1	5	1	ant_1	0	1	n/a	NaN	0	0	n/a	0	0	898.0417113	898.1417103	0.099999
44856.5	0.0999992	692	non_foods\stim049_animate_insect_butterfly_1.png	1	5	1	butterfly_1	0	44	n/a	NaN	0	0	n/a	0	0	898.1917133	898.2917125	0.0999992
44894	0.0999958	693	non_foods\stim009_animate_bird_parrot_1.png	1	5	1	parrot_1	0	212	n/a	NaN	0	0	n/a	0	0	898.341714	898.4417098	0.0999958
44931.5	0.0999887	694	foods\cooked_prawn.jpg	1	5	1	cooked_prawn	1	92	TF_060	0	0	0	n/a	0	0	898.4917144	898.5917031	0.0999887
44969	0.1000047	695	foods\capsicum.jpg	1	5	1	capsicum	1	55	NF_076	1	0	0	n/a	0	0	898.6417171	898.7417218	0.1000047
45006.5	0.0999918	696	non_foods\stim133_inanimate_plants_tree_1.png	1	5	1	tree_1	0	299	n/a	NaN	0	0	n/a	0	0	898.7917105	898.8917023	0.0999918
45044	0.0999985	697	non_foods\stim121_inanimate_plants_bush_1.png	1	5	1	bush_1	0	40	n/a	NaN	0	0	n/a	0	0	898.9417055	899.041704	0.0999985
45081.5	0.0999819	698	foods\hazelnuts.jpg	1	5	1	hazelnuts	1	159	NF_065	1	0	0	n/a	0	0	899.0917183	899.1917002	0.0999819
45119	0.0999997	699	foods\smoked_ham.jpg	1	5	1	smoked_ham	1	266	TF_118	0	0	0	n/a	0	0	899.2417095	899.3417092	0.0999997
45156.5	0.0999694	700	foods\chocolate_pralines.jpg	1	5	1	chocolate_pralines	1	77	TF_035	0	0	0	n/a	0	0	899.3917291	899.4916985	0.0999694
45194	0.0999902	701	foods\blackberry.jpg	1	5	1	blackberry	1	24	NF_063	1	0	0	n/a	0	0	899.5417083	899.6416985	0.0999902
45231.5	0.0999966	702	non_foods\stim040_animate_human_sports_4.png	1	5	1	sports_4	0	281	n/a	NaN	0	0	n/a	0	0	899.6916996	899.7916962	0.0999966
45269	0.0999888	703	foods\blue_cheese.jpg	1	5	1	blue_cheese	1	25	TF_066	0	0	0	n/a	0	0	899.8417091	899.9416979	0.0999888
45306.5	0.0999919	704	non_foods\stim096_inanimate_clothing_shirt_4.png	1	5	1	shirt_4	0	265	n/a	NaN	0	0	n/a	0	0	899.9917	900.0916919	0.0999919
45344	0.0999966	705	non_foods\stim151_inanimate_tools_pan_3.png	1	5	1	pan_3	0	207	n/a	NaN	0	0	n/a	0	0	900.1416966	900.2416932	0.0999966
45381.5	0.0999926	706	non_foods\stim143_inanimate_tools_broom_3.png	1	5	1	broom_3	0	32	n/a	NaN	0	0	n/a	0	0	900.2916949	900.3916875	0.0999926
45419	0.1000179	707	non_foods\stim028_animate_human_child_4.png	1	5	1	child_4	0	73	n/a	NaN	0	0	n/a	0	0	900.4416915	900.5417094	0.1000179
45456.5	0.0999782	708	non_foods\stim043_animate_insect_ant_3.png	1	5	1	ant_3	0	3	n/a	NaN	0	0	n/a	0	0	900.5917156	900.6916938	0.0999782
45494	0.099982	709	foods\red_beans.jpg	1	5	1	red_beans	1	244	NF_033	1	0	0	n/a	0	0	900.7417038	900.8416858	0.099982
45531.5	0.0999857	710	foods\pork_and_rice.jpg	1	5	1	pork_and_rice	1	233	TF_080	0	0	0	n/a	0	0	900.891695	900.9916807	0.0999857
45569	0.1000528	711	foods\cereal.jpg	1	5	1	cereal	1	59	TF_028	0	0	0	n/a	0	0	901.0416973	901.1417501	0.1000528
45606.5	0.099971	712	non_foods\stim160_inanimate_tools_wrench_4.png	1	5	1	wrench_4	0	313	n/a	NaN	0	0	n/a	0	0	901.1917077	901.2916787	0.099971
45644	0.0999977	713	non_foods\stim033_animate_human_faces_1.png	1	5	1	faces_1	0	117	n/a	NaN	0	0	n/a	0	0	901.3416862	901.4416839	0.0999977
45681.5	0.0999931	714	non_foods\stim106_inanimate_furniture_chair_2.png	1	5	1	chair_2	0	61	n/a	NaN	0	0	n/a	0	0	901.4916881	901.5916812	0.0999931
45719	0.0999881	715	foods\chocolate_pudding.jpg	1	5	1	chocolate_pudding	1	78	TF_018	0	0	0	n/a	0	0	901.6416892	901.7416773	0.0999881
45756.5	0.0999941	716	non_foods\stim011_animate_bird_parrot_3.png	1	5	1	parrot_3	0	214	n/a	NaN	0	0	n/a	0	0	901.7916877	901.8916818	0.0999941
45794	0.0999935	717	non_foods\stim006_animate_bird_duck_2.png	1	5	1	duck_2	0	112	n/a	NaN	0	0	n/a	0	0	901.9416841	902.0416776	0.0999935
45831.5	0.0999913	718	foods\licorice.jpg	1	5	1	licorice	1	179	TF_078	0	1	0	n/a	0	0	902.0916867	902.191678	0.0999913
45869	0.0999815	719	foods\rice.jpg	1	5	1	rice	1	250	TF_121	0	0	0	n/a	0	0	902.2417053	902.3416868	0.0999815
45906.5	0.0999993	720	non_foods\stim051_animate_insect_butterfly_3.png	1	5	1	butterfly_3	0	46	n/a	NaN	0	1	d	0.3921213	1	902.3916755	902.4916748	0.0999993
45944	0.099997	721	foods\grapefruits.jpg	1	5	1	grapefruits	1	141	NF_085	1	0	0	n/a	0	0	902.5416815	902.6416785	0.099997
45981.5	0.0999912	722	non_foods\stim078_animate_mammal_rhino_2.png	1	5	1	rhino_2	0	247	n/a	NaN	0	0	n/a	0	0	902.6916768	902.791668	0.0999912
46019	0.100006	723	foods\asparagus.jpg	1	5	1	asparagus	1	8	NF_010	1	0	0	n/a	0	0	902.8416852	902.9416912	0.100006
46056.5	0.0999919	724	non_foods\stim101_inanimate_furniture_bed_1.png	1	5	1	bed_1	0	19	n/a	NaN	0	0	n/a	0	0	902.9916793	903.0916712	0.0999919
46094	0.0999932	725	non_foods\stim035_animate_human_faces_3.png	1	5	1	faces_3	0	119	n/a	NaN	0	0	n/a	0	0	903.1416738	903.241667	0.0999932
46131.5	0.0999943	726	foods\raw_sausage.jpg	1	5	1	raw_sausage	1	243	TF_131	0	0	0	n/a	0	0	903.2916755	903.3916698	0.0999943
46169	0.0999904	727	foods\bread.jpg	1	5	1	bread	1	26	TF_089	0	0	0	n/a	0	0	903.4416753	903.5416657	0.0999904
46206.5	0.0999922	728	foods\calamari.jpg	1	5	1	calamari	1	53	TF_019	0	0	0	n/a	0	0	903.5916712	903.6916634	0.0999922
46244	0.0999963	729	non_foods\stim098_inanimate_clothing_socks_2.png	1	5	1	socks_2	0	268	n/a	NaN	0	0	n/a	0	0	903.7416664	903.8416627	0.0999963
46281.5	0.0999946	730	non_foods\stim026_animate_human_child_2.png	1	5	1	child_2	0	71	n/a	NaN	0	0	n/a	0	0	903.8916628	903.9916574	0.0999946
46319	0.0999872	731	non_foods\stim003_animate_bird_chicken_3.png	1	5	1	chicken_3	0	68	n/a	NaN	0	0	n/a	0	0	904.0416743	904.1416615	0.0999872
46356.5	0.099995	732	non_foods\stim120_inanimate_furniture_table_4.png	1	5	1	table_4	0	294	n/a	NaN	0	0	n/a	0	0	904.1916659	904.2916609	0.099995
46394	0.099996	733	non_foods\stim059_animate_insect_grasshopper_3.png	1	5	1	grasshopper_3	0	145	n/a	NaN	0	0	n/a	0	0	904.3416596	904.4416556	0.099996
46431.5	0.0999935	734	non_foods\stim036_animate_human_faces_4.png	1	5	1	faces_4	0	120	n/a	NaN	0	0	n/a	0	0	904.4916576	904.5916511	0.0999935
46469	0.1000025	735	foods\pancakes.jpg	1	5	1	pancakes	1	209	TF_058	0	0	0	n/a	0	0	904.6416732	904.7416757	0.1000025
46506.5	0.099993	736	non_foods\stim088_inanimate_clothing_hat_4.png	1	5	1	hat_4	0	158	n/a	NaN	0	0	n/a	0	0	904.7916582	904.8916512	0.099993
46544	0.0999992	737	non_foods\stim157_inanimate_tools_wrench_1.png	1	5	1	wrench_1	0	310	n/a	NaN	0	0	n/a	0	0	904.9416551	905.0416543	0.0999992
46581.5	0.0999937	738	non_foods\stim077_animate_mammal_rhino_1.png	1	5	1	rhino_1	0	246	n/a	NaN	0	0	n/a	0	0	905.0916569	905.1916506	0.0999937
46619	0.0999995	739	foods\cooked_ham.jpg	1	5	1	cooked_ham	1	91	TF_116	0	1	0	n/a	0	0	905.2416605	905.34166	0.0999995
46656.5	0.0999915	740	foods\tomato.jpg	1	5	1	tomato	1	298	NF_084	1	0	0	n/a	0	0	905.3916579	905.4916494	0.0999915
46694	0.0999938	741	non_foods\stim134_inanimate_plants_tree_2.png	1	5	1	tree_2	0	300	n/a	NaN	0	0	n/a	0	0	905.5416536	905.6416474	0.0999938
46731.5	0.1000135	742	foods\artichoke.jpg	1	5	1	artichoke	1	7	NF_018	1	0	1	d	0.4422869	1	905.6916568	905.7916703	0.1000135
46769	0.0999764	743	foods\ice_cream.jpg	1	5	1	ice_cream	1	162	TF_062	0	0	0	n/a	0	0	905.841669	905.9416454	0.0999764
46806.5	0.0999997	744	non_foods\stim072_animate_mammal_kangaroo_4.png	1	5	1	kangaroo_4	0	171	n/a	NaN	0	0	n/a	0	0	905.9916455	906.0916452	0.0999997
46844	0.0999871	745	foods\dried_figs.jpg	1	5	1	dried_figs	1	110	TF_054	0	0	0	n/a	0	0	906.1416548	906.2416419	0.0999871
46881.5	0.0999937	746	foods\omelette.jpg	1	5	1	omelette	1	199	TF_057	0	0	0	n/a	0	0	906.2916512	906.3916449	0.0999937
46919	0.0999653	747	foods\lime.jpg	1	5	1	lime	1	180	NF_048	1	0	0	n/a	0	0	906.4416725	906.5416378	0.0999653
46956.5	0.0999875	748	foods\fruit_flan.jpg	1	5	1	fruit_flan	1	127	TF_093	0	0	0	n/a	0	0	906.5916519	906.6916394	0.0999875
46994	0.0999892	749	foods\croissant.jpg	1	5	1	croissant	1	100	TF_037	0	0	0	n/a	0	0	906.7416466	906.8416358	0.0999892
47031.5	0.099991	750	foods\lemon_meringue_pie.jpg	1	5	1	lemon_meringue_pie	1	176	TF_151	0	0	0	n/a	0	0	906.8916461	906.9916371	0.099991
47069	0.0999973	751	non_foods\stim147_inanimate_tools_hammer_3.png	1	5	1	hammer_3	0	153	n/a	NaN	0	0	n/a	0	0	907.0416372	907.1416345	0.0999973
47106.5	0.0999947	752	foods\baguette.jpg	1	5	1	baguette	1	15	TF_006	0	0	0	n/a	0	0	907.1916428	907.2916375	0.0999947
47144	0.0999897	753	non_foods\stim122_inanimate_plants_bush_2.png	1	5	1	bush_2	0	41	n/a	NaN	0	0	n/a	0	0	907.3416389	907.4416286	0.0999897
47181.5	0.1000075	754	non_foods\stim069_animate_mammal_kangaroo_1.png	1	5	1	kangaroo_1	0	168	n/a	NaN	0	0	n/a	0	0	907.4916359	907.5916434	0.1000075
47219	0.0999744	755	foods\wafer.jpg	1	5	1	wafer	1	307	TF_155	0	0	0	n/a	0	0	907.6416541	907.7416285	0.0999744
