onset	duration	eventnumber	stim_file	blockno	trialno	is_faststream	stim	food_idx	image_number	stim_code	is_natural	istarget	response	keypressed	rt	correct	time_stimon	time_stimoff	stimdur
11632.75	0.0999783	0	stimuli/foods\chocolate_pudding.jpg	1	1	1	chocolate_pudding	1	78	TF_018	0	0	0		0	0	3239.505967	3239.605946	0.0999783
11670.25	0.0999844	1	stimuli/foods\coconut.jpg	1	1	1	coconut	1	89	NF_030	1	0	0		0	0	3239.655958	3239.755943	0.0999844
11707.75	0.1000032	2	stimuli/non_foods\stim103_inanimate_furniture_bed_3.png	1	1	1	bed_3	0	21		NaN	0	0		0	0	3239.80595	3239.905953	0.1000032
11745.25	0.099996	3	stimuli/foods\cereal.jpg	1	1	1	cereal	1	59	TF_028	0	0	1	d	0	0	3239.955947	3240.055943	0.099996
11782.75	0.0999895	4	stimuli/foods\pomegranate.jpg	1	1	1	pomegranate	1	232	NF_058	1	0	0		0	0	3240.105952	3240.205942	0.0999895
11820.25	0.1000142	5	stimuli/non_foods\stim066_animate_mammal_giraffe_2.png	1	1	1	giraffe_2	0	133		NaN	0	0		0	0	3240.255948	3240.355962	0.1000142
11857.75	0.0999932	6	stimuli/non_foods\stim147_inanimate_tools_hammer_3.png	1	1	1	hammer_3	0	153		NaN	0	0		0	0	3240.405931	3240.505925	0.0999932
11895.25	0.1002162	7	stimuli/non_foods\stim112_inanimate_furniture_closet_4.png	1	1	1	closet_4	0	84		NaN	0	0		0	0	3240.555939	3240.656155	0.1002162
11932.75	0.0999984	8	stimuli/foods\croissant.jpg	1	1	1	croissant	1	100	TF_037	0	0	0		0	0	3240.705925	3240.805924	0.0999984
11970.25	0.1000002	9	stimuli/non_foods\stim070_animate_mammal_kangaroo_2.png	1	1	1	kangaroo_2	0	169		NaN	0	0		0	0	3240.855937	3240.955937	0.1000002
12007.75	0.0999953	10	stimuli/non_foods\stim019_animate_bird_penguin_3.png	1	1	1	penguin_3	0	227		NaN	0	0		0	0	3241.005937	3241.105932	0.0999953
12045.25	0.1000013	11	stimuli/foods\chocolate_chip_cookies.jpg	1	1	1	chocolate_chip_cookies	1	76	TF_010	0	0	0		0	0	3241.15594	3241.255941	0.1000013
12082.75	0.0999923	12	stimuli/foods\spring_onions.jpg	1	1	1	spring_onions	1	282	NF_086	1	0	0		0	0	3241.305941	3241.405933	0.0999923
12120.25	0.1000272	13	stimuli/non_foods\stim074_animate_mammal_monkey_2.png	1	1	1	monkey_2	0	189		NaN	0	1	d	0	0	3241.455936	3241.555963	0.1000272
12157.75	0.0999953	14	stimuli/non_foods\stim056_animate_insect_dragonfly_4.png	1	1	1	dragonfly_4	0	109		NaN	0	0		0	0	3241.605931	3241.705926	0.0999953
12195.25	0.0999826	15	stimuli/foods\green_olives.jpg	1	1	1	green_olives	1	148	TF_085	0	0	0		0	0	3241.755945	3241.855927	0.0999826
12232.75	0.0999822	16	stimuli/foods\pear.jpg	1	1	1	pear	1	223	NF_077	1	0	0		0	0	3241.905932	3242.005914	0.0999822
12270.25	0.0999801	17	stimuli/non_foods\stim076_animate_mammal_monkey_4.png	1	1	1	monkey_4	0	191		NaN	0	1	d	0	0	3242.055918	3242.155898	0.0999801
12307.75	0.0999892	18	stimuli/non_foods\stim117_inanimate_furniture_table_1.png	1	1	1	table_1	0	291		NaN	0	0		0	0	3242.205929	3242.305918	0.0999892
12345.25	0.0999867	19	stimuli/foods\fruit_salad.jpg	1	1	1	fruit_salad	1	129	NF_043	1	0	0		0	0	3242.35593	3242.455917	0.0999867
12382.75	0.099994	20	stimuli/non_foods\stim128_inanimate_plants_cactus_4.png	1	1	1	cactus_4	0	52		NaN	0	0		0	0	3242.505922	3242.605916	0.099994
12420.25	0.0999931	21	stimuli/non_foods\stim083_inanimate_clothing_gloves_3.png	1	1	1	gloves_3	0	138		NaN	0	0		0	0	3242.655917	3242.75591	0.0999931
12457.75	0.0999993	22	stimuli/foods\blue_cheese.jpg	1	1	1	blue_cheese	1	25	TF_066	0	0	0		0	0	3242.805919	3242.905918	0.0999993
12495.25	0.0999938	23	stimuli/non_foods\stim118_inanimate_furniture_table_2.png	1	1	1	table_2	0	292		NaN	0	0		0	0	3242.955919	3243.055913	0.0999938
12532.75	0.0999969	24	stimuli/non_foods\stim054_animate_insect_dragonfly_2.png	1	1	1	dragonfly_2	0	107		NaN	0	0		0	0	3243.105913	3243.20591	0.0999969
12570.25	0.0999773	25	stimuli/non_foods\stim028_animate_human_child_4.png	1	1	1	child_4	0	73		NaN	0	0		0	0	3243.255926	3243.355904	0.0999773
12607.75	0.0999894	26	stimuli/foods\lentils.jpg	1	1	1	lentils	1	177	NF_047	1	0	0		0	0	3243.405912	3243.505902	0.0999894
12645.25	0.0999761	27	stimuli/foods\cauliflower.jpg	1	1	1	cauliflower	1	57	NF_022	1	0	0		0	0	3243.555913	3243.655889	0.0999761
12682.75	0.0999795	28	stimuli/foods\toast.jpg	1	1	1	toast	1	296	TF_053	0	0	0		0	0	3243.705922	3243.805902	0.0999795
12720.25	0.0999964	29	stimuli/non_foods\stim058_animate_insect_grasshopper_2.png	1	1	1	grasshopper_2	0	144		NaN	0	0		0	0	3243.8559	3243.955897	0.0999964
12757.75	0.0999979	30	stimuli/non_foods\stim073_animate_mammal_monkey_1.png	1	1	1	monkey_1	0	188		NaN	0	0		0	0	3244.005899	3244.105897	0.0999979
12795.25	0.100009	31	stimuli/non_foods\stim132_inanimate_plants_sunflower_4.png	1	1	1	sunflower_4	0	289		NaN	0	0		0	0	3244.155896	3244.255905	0.100009
12832.75	0.1000181	32	stimuli/non_foods\stim107_inanimate_furniture_chair_3.png	1	1	1	chair_3	0	62		NaN	0	0		0	0	3244.305908	3244.405926	0.1000181
12870.25	0.0999899	33	stimuli/non_foods\stim127_inanimate_plants_cactus_3.png	1	1	1	cactus_3	0	51		NaN	0	0		0	0	3244.455907	3244.555897	0.0999899
12907.75	0.0999981	34	stimuli/non_foods\stim141_inanimate_tools_broom_1.png	1	1	1	broom_1	0	30		NaN	0	0		0	0	3244.605898	3244.705896	0.0999981
12945.25	0.1000006	35	stimuli/non_foods\stim021_animate_human_baby_1.png	1	1	1	baby_1	0	10		NaN	0	0		0	0	3244.755902	3244.855903	0.1000006
12982.75	0.0999876	36	stimuli/foods\bread.jpg	1	1	1	bread	1	26	TF_089	0	0	0		0	0	3244.905908	3245.005896	0.0999876
13020.25	0.0999867	37	stimuli/foods\licorice.jpg	1	1	1	licorice	1	179	TF_078	0	0	0		0	0	3245.055906	3245.155893	0.0999867
13057.75	0.0999916	38	stimuli/non_foods\stim062_animate_mammal_cow_2.png	1	1	1	cow_2	0	95		NaN	0	0		0	0	3245.205901	3245.305892	0.0999916
13095.25	0.0999872	39	stimuli/foods\lime.jpg	1	1	1	lime	1	180	NF_048	1	0	0		0	0	3245.355901	3245.455888	0.0999872
13132.75	0.0999808	40	stimuli/foods\salmon.jpg	1	1	1	salmon	1	256	TF_130	0	0	0		0	0	3245.505899	3245.60588	0.0999808
13170.25	0.0999858	41	stimuli/foods\oven-roasted_tomatoes.jpg	1	1	1	oven-roasted_tomatoes	1	203	TF_114	0	0	0		0	0	3245.655897	3245.755882	0.0999858
13207.75	0.0999869	42	stimuli/foods\cabbage.jpg	1	1	1	cabbage	1	48	NF_025	1	0	0		0	0	3245.80589	3245.905877	0.0999869
13245.25	0.1000156	43	stimuli/non_foods\stim008_animate_bird_duck_4.png	1	1	1	duck_4	0	114		NaN	0	0		0	0	3245.955869	3246.055885	0.1000156
13282.75	0.0999909	44	stimuli/non_foods\stim013_animate_bird_peacock_1.png	1	1	1	peacock_1	0	219		NaN	0	0		0	0	3246.10589	3246.205881	0.0999909
13320.25	0.1000007	45	stimuli/non_foods\stim071_animate_mammal_kangaroo_3.png	1	1	1	kangaroo_3	0	170		NaN	0	0		0	0	3246.255884	3246.355885	0.1000007
13357.75	0.0999881	46	stimuli/foods\hazelnuts.jpg	1	1	1	hazelnuts	1	159	NF_065	1	0	0		0	0	3246.405894	3246.505882	0.0999881
13395.25	0.0999933	47	stimuli/non_foods\stim113_inanimate_furniture_sofa_1.png	1	1	1	sofa_1	0	271		NaN	0	0		0	0	3246.555884	3246.655878	0.0999933
13432.75	0.0999872	48	stimuli/foods\brie.jpg	1	1	1	brie	1	28	TF_016	0	0	0		0	0	3246.705889	3246.805877	0.0999872
13470.25	0.0999869	49	stimuli/non_foods\stim098_inanimate_clothing_socks_2.png	1	1	1	socks_2	0	268		NaN	0	0		0	0	3246.855889	3246.955876	0.0999869
13507.75	0.0999828	50	stimuli/non_foods\stim094_inanimate_clothing_shirt_2.png	1	1	1	shirt_2	0	263		NaN	0	0		0	0	3247.005882	3247.105865	0.0999828
13545.25	0.0999996	51	stimuli/non_foods\stim097_inanimate_clothing_socks_1.png	1	1	1	socks_1	0	267		NaN	0	0		0	0	3247.155884	3247.255884	0.0999996
13582.75	0.0999887	52	stimuli/foods\cannoli.jpg	1	1	1	cannoli	1	54	TF_022	0	0	0		0	0	3247.305883	3247.405872	0.0999887
13620.25	0.1000016	53	stimuli/non_foods\stim018_animate_bird_penguin_2.png	1	1	1	penguin_2	0	226		NaN	0	0		0	0	3247.45587	3247.555871	0.1000016
13657.75	0.0999782	54	stimuli/foods\prawn.jpg	1	1	1	prawn	1	238	NF_041	1	0	0		0	0	3247.605883	3247.705862	0.0999782
13695.25	0.1000186	55	stimuli/non_foods\stim004_animate_bird_chicken_4.png	1	1	1	chicken_4	0	69		NaN	0	0		0	0	3247.755868	3247.855887	0.1000186
13732.75	0.0999999	56	stimuli/foods\roasted_chicken.jpg	1	1	1	roasted_chicken	1	253	TF_109	0	0	0		0	0	3247.905871	3248.005871	0.0999999
13770.25	0.0999806	57	stimuli/foods\green_beans.jpg	1	1	1	green_beans	1	147	NF_034	1	0	0		0	0	3248.055868	3248.155849	0.0999806
13807.75	0.0999991	58	stimuli/non_foods\stim048_animate_insect_bug_4.png	1	1	1	bug_4	0	39		NaN	0	0		0	0	3248.205868	3248.305867	0.0999991
13845.25	0.0999789	59	stimuli/foods\swordfish.jpg	1	1	1	swordfish	1	290	TF_101	0	0	0		0	0	3248.355876	3248.455855	0.0999789
13882.75	0.1000045	60	stimuli/non_foods\stim068_animate_mammal_giraffe_4.png	1	1	1	giraffe_4	0	135		NaN	0	0		0	0	3248.505859	3248.605864	0.1000045
13920.25	0.1000017	61	stimuli/non_foods\stim158_inanimate_tools_wrench_2.png	1	1	1	wrench_2	0	311		NaN	0	0		0	0	3248.655854	3248.755856	0.1000017
13957.75	0.0999882	62	stimuli/non_foods\stim075_animate_mammal_monkey_3.png	1	1	1	monkey_3	0	190		NaN	0	0		0	0	3248.80586	3248.905848	0.0999882
13995.25	0.1000209	63	stimuli/non_foods\stim031_animate_human_clown_3.png	1	1	1	clown_3	0	87		NaN	0	0		0	0	3248.955838	3249.055859	0.1000209
14032.75	0.0999984	64	stimuli/non_foods\stim043_animate_insect_ant_3.png	1	1	1	ant_3	0	3		NaN	0	0		0	0	3249.10586	3249.205859	0.0999984
14070.25	0.0999883	65	stimuli/foods\salami.jpg	1	1	1	salami	1	255	TF_127	0	0	0		0	0	3249.255866	3249.355854	0.0999883
14107.75	0.0999918	66	stimuli/non_foods\stim080_animate_mammal_rhino_4.png	1	1	1	rhino_4	0	249		NaN	0	0		0	0	3249.405856	3249.505848	0.0999918
14145.25	0.099982	67	stimuli/foods\grapes.jpg	1	1	1	grapes	1	142	NF_098	1	0	0		0	0	3249.55587	3249.655852	0.099982
14182.75	0.1000067	68	stimuli/non_foods\stim082_inanimate_clothing_gloves_2.png	1	1	1	gloves_2	0	137		NaN	1	0		0	0	3249.70583	3249.805836	0.1000067
14220.25	0.0999914	69	stimuli/foods\fries.jpg	1	1	1	fries	1	126	TF_094	0	0	0		0	0	3249.855892	3249.955883	0.0999914
14257.75	0.0999989	70	stimuli/non_foods\stim042_animate_insect_ant_2.png	1	1	1	ant_2	0	2		NaN	0	1	d	0.3921185	1	3250.005849	3250.105848	0.0999989
14295.25	0.0999968	71	stimuli/non_foods\stim045_animate_insect_bug_1.png	1	1	1	bug_1	0	36		NaN	0	0		0	0	3250.155853	3250.25585	0.0999968
14332.75	0.0999931	72	stimuli/non_foods\stim025_animate_human_child_1.png	1	1	1	child_1	0	70		NaN	0	0		0	0	3250.30585	3250.405843	0.0999931
14370.25	0.099991	73	stimuli/foods\steak.jpg	1	1	1	steak	1	283	TF_013	0	0	0		0	0	3250.455852	3250.555843	0.099991
14407.75	0.0999951	74	stimuli/non_foods\stim059_animate_insect_grasshopper_3.png	1	1	1	grasshopper_3	0	145		NaN	0	0		0	0	3250.605849	3250.705844	0.0999951
14445.25	0.0999846	75	stimuli/foods\rice_cake.jpg	1	1	1	rice_cake	1	251	TF_059	0	0	0		0	0	3250.755854	3250.855839	0.0999846
14482.75	0.0999923	76	stimuli/foods\pea_pod.jpg	1	1	1	pea_pod	1	217	NF_082	1	0	0		0	0	3250.905845	3251.005838	0.0999923
14520.25	0.0999935	77	stimuli/non_foods\stim052_animate_insect_butterfly_4.png	1	1	1	butterfly_4	0	47		NaN	0	0		0	0	3251.055843	3251.155837	0.0999935
14557.75	0.0999974	78	stimuli/foods\pineapple.jpg	1	1	1	pineapple	1	231	NF_004	1	0	0		0	0	3251.205838	3251.305835	0.0999974
14595.25	0.0999976	79	stimuli/non_foods\stim040_animate_human_sports_4.png	1	1	1	sports_4	0	281		NaN	0	0		0	0	3251.355839	3251.455837	0.0999976
14632.75	0.0999923	80	stimuli/foods\grapefruits.jpg	1	1	1	grapefruits	1	141	NF_085	1	0	0		0	0	3251.505841	3251.605833	0.0999923
14670.25	0.1000096	81	stimuli/non_foods\stim101_inanimate_furniture_bed_1.png	1	1	1	bed_1	0	19		NaN	0	0		0	0	3251.655829	3251.755838	0.1000096
14707.75	0.099994	82	stimuli/non_foods\stim067_animate_mammal_giraffe_3.png	1	1	1	giraffe_3	0	134		NaN	0	0		0	0	3251.805834	3251.905828	0.099994
14745.25	0.099992	83	stimuli/non_foods\stim015_animate_bird_peacock_3.png	1	1	1	peacock_3	0	221		NaN	0	0		0	0	3251.955836	3252.055828	0.099992
14782.75	0.0999888	84	stimuli/foods\wafer.jpg	1	1	1	wafer	1	307	TF_155	0	0	0		0	0	3252.10584	3252.205829	0.0999888
14820.25	0.0999878	85	stimuli/foods\raw_ham.jpg	1	1	1	raw_ham	1	242	TF_117	0	0	0		0	0	3252.255838	3252.355826	0.0999878
14857.75	0.0999968	86	stimuli/non_foods\stim090_inanimate_clothing_jeans_2.png	1	1	1	jeans_2	0	165		NaN	0	0		0	0	3252.405828	3252.505825	0.0999968
14895.25	0.0999982	87	stimuli/foods\lemon_meringue_pie.jpg	1	1	1	lemon_meringue_pie	1	176	TF_151	0	0	0		0	0	3252.555825	3252.655824	0.0999982
14932.75	0.0999953	88	stimuli/non_foods\stim099_inanimate_clothing_socks_3.png	1	1	1	socks_3	0	269		NaN	0	0		0	0	3252.705827	3252.805822	0.0999953
14970.25	0.0999932	89	stimuli/non_foods\stim064_animate_mammal_cow_4.png	1	1	1	cow_4	0	97		NaN	0	0		0	0	3252.855827	3252.95582	0.0999932
15007.75	0.0999892	90	stimuli/non_foods\stim111_inanimate_furniture_closet_3.png	1	1	1	closet_3	0	83		NaN	0	0		0	0	3253.005829	3253.105818	0.0999892
15045.25	0.0999894	91	stimuli/foods\raw_sausage.jpg	1	1	1	raw_sausage	1	243	TF_131	0	0	0		0	0	3253.155826	3253.255816	0.0999894
15082.75	0.1000224	92	stimuli/non_foods\stim041_animate_insect_ant_1.png	1	1	1	ant_1	0	1		NaN	0	0		0	0	3253.305818	3253.40584	0.1000224
15120.25	0.0999763	93	stimuli/non_foods\stim144_inanimate_tools_broom_4.png	1	1	1	broom_4	0	33		NaN	0	0		0	0	3253.455839	3253.555815	0.0999763
15157.75	0.0999868	94	stimuli/foods\spaghetti_with_olives_and_capers.jpg	1	1	1	spaghetti_with_olives_and_capers	1	276	TF_135	0	0	0		0	0	3253.605825	3253.705812	0.0999868
15195.25	0.0999916	95	stimuli/non_foods\stim148_inanimate_tools_hammer_4.png	1	1	1	hammer_4	0	154		NaN	0	0		0	0	3253.755817	3253.855809	0.0999916
15232.75	0.1000205	96	stimuli/non_foods\stim063_animate_mammal_cow_3.png	1	1	1	cow_3	0	96		NaN	0	0		0	0	3253.905787	3254.005808	0.1000205
15270.25	0.0999927	97	stimuli/foods\lobster.jpg	1	1	1	lobster	1	182	NF_007	1	0	0		0	0	3254.055821	3254.155814	0.0999927
15307.75	0.0999927	98	stimuli/foods\chocolate_bar.jpg	1	1	1	chocolate_bar	1	75	TF_033	0	0	0		0	0	3254.205813	3254.305806	0.0999927
15345.25	0.0999898	99	stimuli/foods\red_cabbage.jpg	1	1	1	red_cabbage	1	245	NF_023	1	0	0		0	0	3254.355815	3254.455805	0.0999898
15382.75	0.0999703	100	stimuli/foods\watermelon.jpg	1	1	1	watermelon	1	309	NF_005	1	1	0		0	0	3254.505834	3254.605804	0.0999703
15420.25	0.0999939	101	stimuli/non_foods\stim115_inanimate_furniture_sofa_3.png	1	1	1	sofa_3	0	273		NaN	0	0		0	0	3254.655809	3254.755803	0.0999939
15457.75	0.0999984	102	stimuli/non_foods\stim114_inanimate_furniture_sofa_2.png	1	1	1	sofa_2	0	272		NaN	0	0		0	0	3254.805807	3254.905805	0.0999984
15495.25	0.0999844	103	stimuli/foods\grilled_chicken_breast.jpg	1	1	1	grilled_chicken_breast	1	149	TF_104	0	0	0		0	0	3254.955813	3255.055798	0.0999844
15532.75	0.1000069	104	stimuli/foods\lamb_chops.jpg	1	1	1	lamb_chops	1	173	TF_040	0	0	1	d	0.5923633	1	3255.105813	3255.20582	0.1000069
15570.25	0.0999627	105	stimuli/non_foods\stim093_inanimate_clothing_shirt_1.png	1	1	1	shirt_1	0	262		NaN	0	0		0	0	3255.255836	3255.355798	0.0999627
15607.75	0.0999948	106	stimuli/non_foods\stim126_inanimate_plants_cactus_2.png	1	1	1	cactus_2	0	50		NaN	0	0		0	0	3255.405801	3255.505795	0.0999948
15645.25	0.0999956	107	stimuli/non_foods\stim124_inanimate_plants_bush_4.png	1	1	1	bush_4	0	43		NaN	0	0		0	0	3255.555801	3255.655797	0.0999956
15682.75	0.0999946	108	stimuli/non_foods\stim069_animate_mammal_kangaroo_1.png	1	1	1	kangaroo_1	0	168		NaN	0	0		0	0	3255.705798	3255.805793	0.0999946
15720.25	0.0999911	109	stimuli/foods\cinnamon.jpg	1	1	1	cinnamon	1	79	NF_017	1	0	0		0	0	3255.855803	3255.955794	0.0999911
15757.75	0.0999947	110	stimuli/non_foods\stim119_inanimate_furniture_table_3.png	1	1	1	table_3	0	293		NaN	0	0		0	0	3256.005795	3256.10579	0.0999947
15795.25	0.0999795	111	stimuli/foods\chilli.jpg	1	1	1	chilli	1	74	NF_073	1	0	0		0	0	3256.1558	3256.255779	0.0999795
15832.75	0.0999914	112	stimuli/foods\capsicum.jpg	1	1	1	capsicum	1	55	NF_076	1	0	0		0	0	3256.3058	3256.405791	0.0999914
15870.25	0.099993	113	stimuli/non_foods\stim023_animate_human_baby_3.png	1	1	1	baby_3	0	12		NaN	0	0		0	0	3256.455785	3256.555778	0.099993
15907.75	0.0999966	114	stimuli/non_foods\stim030_animate_human_clown_2.png	1	1	1	clown_2	0	86		NaN	0	0		0	0	3256.605788	3256.705784	0.0999966
15945.25	0.0999941	115	stimuli/non_foods\stim100_inanimate_clothing_socks_4.png	1	1	1	socks_4	0	270		NaN	0	0		0	0	3256.755791	3256.855785	0.0999941
15982.75	0.1000071	116	stimuli/foods\cupcake.jpg	1	1	1	cupcake	1	102	TF_050	0	0	0		0	0	3256.905798	3257.005805	0.1000071
16020.25	0.0999895	117	stimuli/foods\onion.jpg	1	1	1	onion	1	200	NF_029	1	0	0		0	0	3257.05579	3257.15578	0.0999895
16057.75	0.0999896	118	stimuli/foods\cucumber.jpg	1	1	1	cucumber	1	101	NF_026	1	0	0		0	0	3257.205791	3257.305781	0.0999896
16095.25	0.0999838	119	stimuli/foods\fruit_flan.jpg	1	1	1	fruit_flan	1	127	TF_093	0	0	0		0	0	3257.355791	3257.455775	0.0999838
16132.75	0.0999915	120	stimuli/foods\orange.jpg	1	1	1	orange	1	201	NF_008	1	0	0		0	0	3257.505788	3257.605779	0.0999915
16170.25	0.0999937	121	stimuli/foods\octopus.jpg	1	1	1	octopus	1	198	TF_113	0	0	0		0	0	3257.655782	3257.755776	0.0999937
16207.75	0.0999939	122	stimuli/non_foods\stim007_animate_bird_duck_3.png	1	1	1	duck_3	0	113		NaN	0	0		0	0	3257.805778	3257.905772	0.0999939
16245.25	0.1000098	123	stimuli/non_foods\stim146_inanimate_tools_hammer_2.png	1	1	1	hammer_2	0	152		NaN	0	0		0	0	3257.955775	3258.055785	0.1000098
16282.75	0.0999822	124	stimuli/foods\bagel.jpg	1	1	1	bagel	1	14	TF_005	0	0	0		0	0	3258.105786	3258.205768	0.0999822
16320.25	0.0999887	125	stimuli/foods\stew_with_potatoes_and_carrots.jpg	1	1	1	stew_with_potatoes_and_carrots	1	284	TF_139	0	0	0		0	0	3258.255781	3258.355769	0.0999887
16357.75	0.100012	126	stimuli/non_foods\stim091_inanimate_clothing_jeans_3.png	1	1	1	jeans_3	0	166		NaN	0	0		0	0	3258.405774	3258.505786	0.100012
16395.25	0.0999929	127	stimuli/non_foods\stim130_inanimate_plants_sunflower_2.png	1	1	1	sunflower_2	0	287		NaN	0	0		0	0	3258.555774	3258.655767	0.0999929
16432.75	0.1000155	128	stimuli/non_foods\stim026_animate_human_child_2.png	1	1	1	child_2	0	71		NaN	0	0		0	0	3258.705767	3258.805782	0.1000155
16470.25	0.0999795	129	stimuli/foods\chocolate_pralines.jpg	1	1	1	chocolate_pralines	1	77	TF_035	0	0	0		0	0	3258.855776	3258.955756	0.0999795
16507.75	0.0999818	130	stimuli/foods\artichoke.jpg	1	1	1	artichoke	1	7	NF_018	1	0	0		0	0	3259.005778	3259.10576	0.0999818
16545.25	0.0999863	131	stimuli/foods\apricot.jpg	1	1	1	apricot	1	6	NF_002	1	0	0		0	0	3259.155774	3259.25576	0.0999863
16582.75	0.0999872	132	stimuli/foods\garlic.jpg	1	1	1	garlic	1	130	NF_001	1	0	0		0	0	3259.305771	3259.405759	0.0999872
16620.25	0.0999937	133	stimuli/non_foods\stim005_animate_bird_duck_1.png	1	1	1	duck_1	0	111		NaN	0	0		0	0	3259.455765	3259.555759	0.0999937
16657.75	0.0999897	134	stimuli/foods\minestrone_soup.jpg	1	1	1	minestrone_soup	1	187	TF_160	0	0	0		0	0	3259.605768	3259.705758	0.0999897
16695.25	0.0999909	135	stimuli/foods\toasted_bread_with_tomatoes.jpg	1	1	1	toasted_bread_with_tomatoes	1	297	TF_017	0	0	0		0	0	3259.755767	3259.855757	0.0999909
16732.75	0.0999908	136	stimuli/foods\strawberry.jpg	1	1	1	strawberry	1	285	NF_037	1	0	0		0	0	3259.905764	3260.005755	0.0999908
16770.25	0.099993	137	stimuli/non_foods\stim027_animate_human_child_3.png	1	1	1	child_3	0	72		NaN	0	0		0	0	3260.055759	3260.155752	0.099993
16807.75	0.0999864	138	stimuli/foods\spaghetti_with_meat_sauce.jpg	1	1	1	spaghetti_with_meat_sauce	1	275	TF_137	0	1	0		0	0	3260.205761	3260.305748	0.0999864
16845.25	0.099999	139	stimuli/non_foods\stim009_animate_bird_parrot_1.png	1	1	1	parrot_1	0	212		NaN	0	0		0	0	3260.355755	3260.455754	0.099999
16882.75	0.0999591	140	stimuli/foods\mortadella.jpg	1	1	1	mortadella	1	192	TF_083	0	0	1	d	0.3921557	1	3260.50579	3260.605749	0.0999591
16920.25	0.1000039	141	stimuli/non_foods\stim140_inanimate_plants_tulip_4.png	1	1	1	tulip_4	0	306		NaN	0	0		0	0	3260.655747	3260.755751	0.1000039
16957.75	0.099985	142	stimuli/non_foods\stim087_inanimate_clothing_hat_3.png	1	1	1	hat_3	0	157		NaN	0	0		0	0	3260.805752	3260.905737	0.099985
16995.25	0.0999884	143	stimuli/foods\rockmelon.jpg	1	1	1	rockmelon	1	254	NF_060	1	0	0		0	0	3260.955754	3261.055743	0.0999884
17032.75	0.1000064	144	stimuli/non_foods\stim153_inanimate_tools_scissors_1.png	1	1	1	scissors_1	0	258		NaN	0	0		0	0	3261.105739	3261.205745	0.1000064
17070.25	0.0999946	145	stimuli/non_foods\stim044_animate_insect_ant_4.png	1	1	1	ant_4	0	4		NaN	0	0		0	0	3261.255748	3261.355743	0.0999946
17107.75	0.0999868	146	stimuli/foods\lemon.jpg	1	1	1	lemon	1	175	NF_049	1	0	0		0	0	3261.405752	3261.505739	0.0999868
17145.25	0.0999939	147	stimuli/non_foods\stim014_animate_bird_peacock_2.png	1	1	1	peacock_2	0	220		NaN	0	0		0	0	3261.555747	3261.655741	0.0999939
17182.75	0.0999958	148	stimuli/non_foods\stim136_inanimate_plants_tree_4.png	1	1	1	tree_4	0	302		NaN	0	0		0	0	3261.705742	3261.805738	0.0999958
17220.25	0.0999884	149	stimuli/foods\mussels.jpg	1	1	1	mussels	1	195	TF_042	0	0	0		0	0	3261.855745	3261.955734	0.0999884
17257.75	0.0999949	150	stimuli/non_foods\stim120_inanimate_furniture_table_4.png	1	1	1	table_4	0	294		NaN	0	0		0	0	3262.005741	3262.105736	0.0999949
17295.25	0.0999769	151	stimuli/foods\honey.jpg	1	1	1	honey	1	160	NF_062	1	0	0		0	0	3262.155743	3262.25572	0.0999769
17332.75	0.0999838	152	stimuli/non_foods\stim137_inanimate_plants_tulip_1.png	1	1	1	tulip_1	0	303		NaN	0	0		0	0	3262.305747	3262.405731	0.0999838
17370.25	0.0999863	153	stimuli/foods\cooked_ham.jpg	1	1	1	cooked_ham	1	91	TF_116	0	0	0		0	0	3262.455742	3262.555729	0.0999863
17407.75	0.100004	154	stimuli/non_foods\stim049_animate_insect_butterfly_1.png	1	1	1	butterfly_1	0	44		NaN	0	0		0	0	3262.605726	3262.70573	0.100004
17445.25	0.0999918	155	stimuli/non_foods\stim081_inanimate_clothing_gloves_1.png	1	1	1	gloves_1	0	136		NaN	0	0		0	0	3262.755738	3262.855729	0.0999918
17482.75	0.0999917	156	stimuli/non_foods\stim050_animate_insect_butterfly_2.png	1	1	1	butterfly_2	0	45		NaN	0	0		0	0	3262.905731	3263.005723	0.0999917
19312	0.0999827	157	stimuli/foods\pancakes.jpg	1	2	1	pancakes	1	209	TF_058	0	0	0		0	0	3270.222342	3270.322324	0.0999827
19349.5	0.0999936	158	stimuli/non_foods\stim084_inanimate_clothing_gloves_4.png	1	2	1	gloves_4	0	139		NaN	0	0		0	0	3270.372331	3270.472324	0.0999936
19387	0.0999895	159	stimuli/non_foods\stim092_inanimate_clothing_jeans_4.png	1	2	1	jeans_4	0	167		NaN	0	0		0	0	3270.522331	3270.622321	0.0999895
19424.5	0.0999921	160	stimuli/foods\celery.jpg	1	2	1	celery	1	58	NF_092	1	0	0		0	0	3270.672332	3270.772325	0.0999921
19462	0.0999972	161	stimuli/non_foods\stim145_inanimate_tools_hammer_1.png	1	2	1	hammer_1	0	151		NaN	0	0		0	0	3270.822323	3270.92232	0.0999972
19499.5	0.0999941	162	stimuli/non_foods\stim131_inanimate_plants_sunflower_3.png	1	2	1	sunflower_3	0	288		NaN	0	0		0	0	3270.972321	3271.072315	0.0999941
19537	0.1000181	163	stimuli/foods\dried_figs.jpg	1	2	1	dried_figs	1	110	TF_054	0	0	0		0	0	3271.122324	3271.222342	0.1000181
19574.5	0.0999866	164	stimuli/foods\potato_and_green_bean_salad.jpg	1	2	1	potato_and_green_bean_salad	1	235	TF_072	0	0	0		0	0	3271.272329	3271.372316	0.0999866
19612	0.099997	165	stimuli/non_foods\stim079_animate_mammal_rhino_3.png	1	2	1	rhino_3	0	248		NaN	0	0		0	0	3271.422317	3271.522314	0.099997
19649.5	0.0999907	166	stimuli/foods\baked_lamb_with_potatoes.jpg	1	2	1	baked_lamb_with_potatoes	1	17	TF_001	0	0	0		0	0	3271.572322	3271.672313	0.0999907
19687	0.100019	167	stimuli/non_foods\stim057_animate_insect_grasshopper_1.png	1	2	1	grasshopper_1	0	143		NaN	0	0		0	0	3271.722317	3271.822336	0.100019
19724.5	0.099964	168	stimuli/foods\raisins.jpg	1	2	1	raisins	1	241	NF_096	1	0	0		0	0	3271.872349	3271.972313	0.099964
19762	0.0999874	169	stimuli/foods\hamburger.jpg	1	2	1	hamburger	1	150	TF_069	0	0	0		0	0	3272.022318	3272.122306	0.0999874
19799.5	0.0999967	170	stimuli/non_foods\stim142_inanimate_tools_broom_2.png	1	2	1	broom_2	0	31		NaN	0	0		0	0	3272.172308	3272.272304	0.0999967
19837	0.0999973	171	stimuli/non_foods\stim078_animate_mammal_rhino_2.png	1	2	1	rhino_2	0	247		NaN	0	0		0	0	3272.32231	3272.422307	0.0999973
19874.5	0.0999885	172	stimuli/foods\banana.jpg	1	2	1	banana	1	18	NF_013	1	0	0		0	0	3272.472316	3272.572304	0.0999885
19912	0.0999946	173	stimuli/non_foods\stim034_animate_human_faces_2.png	1	2	1	faces_2	0	118		NaN	0	0		0	0	3272.622308	3272.722303	0.0999946
19949.5	0.0999957	174	stimuli/non_foods\stim121_inanimate_plants_bush_1.png	1	2	1	bush_1	0	40		NaN	1	0		0	0	3272.772308	3272.872303	0.0999957
19987	0.0999715	175	stimuli/non_foods\stim104_inanimate_furniture_bed_4.png	1	2	1	bed_4	0	22		NaN	0	0		0	0	3272.922329	3273.0223	0.0999715
20024.5	0.0999992	176	stimuli/non_foods\stim065_animate_mammal_giraffe_1.png	1	2	1	giraffe_1	0	132		NaN	0	1	f	0.3017294	1	3273.072302	3273.172301	0.0999992
20062	0.0999896	177	stimuli/foods\red_beans.jpg	1	2	1	red_beans	1	244	NF_033	1	0	0		0	0	3273.222309	3273.322299	0.0999896
20099.5	0.0999898	178	stimuli/foods\ice_cream_sandwich.jpg	1	2	1	ice_cream_sandwich	1	163	TF_061	0	0	0		0	0	3273.372305	3273.472295	0.0999898
20137	0.100005	179	stimuli/foods\coffee_beans.jpg	1	2	1	coffee_beans	1	90	TF_029	0	0	0		0	0	3273.522311	3273.622316	0.100005
20174.5	0.0999709	180	stimuli/foods\baguette.jpg	1	2	1	baguette	1	15	TF_006	0	0	0		0	0	3273.67232	3273.77229	0.0999709
20212	0.0999936	181	stimuli/non_foods\stim133_inanimate_plants_tree_1.png	1	2	1	tree_1	0	299		NaN	0	0		0	0	3273.822296	3273.92229	0.0999936
20249.5	0.0999951	182	stimuli/non_foods\stim156_inanimate_tools_scissors_4.png	1	2	1	scissors_4	0	261		NaN	0	0		0	0	3273.972296	3274.072292	0.0999951
20287	0.0999847	183	stimuli/foods\asparagus.jpg	1	2	1	asparagus	1	8	NF_010	1	0	0		0	0	3274.122301	3274.222286	0.0999847
20324.5	0.0999928	184	stimuli/non_foods\stim096_inanimate_clothing_shirt_4.png	1	2	1	shirt_4	0	265		NaN	0	0		0	0	3274.272295	3274.372288	0.0999928
20362	0.0999876	185	stimuli/foods\baked_cod_with_carrots_and_green_beans.jpg	1	2	1	baked_cod_with_carrots_and_green_beans	1	16	TF_082	0	0	0		0	0	3274.422298	3274.522285	0.0999876
20399.5	0.0999908	186	stimuli/foods\tomato.jpg	1	2	1	tomato	1	298	NF_084	1	0	0		0	0	3274.572293	3274.672284	0.0999908
20437	0.0999771	187	stimuli/foods\potato_chips.jpg	1	2	1	potato_chips	1	236	TF_097	0	0	0		0	0	3274.722308	3274.822285	0.0999771
20474.5	0.0999976	188	stimuli/non_foods\stim037_animate_human_sports_1.png	1	2	1	sports_1	0	278		NaN	0	0		0	0	3274.872284	3274.972282	0.0999976
20512	0.0999992	189	stimuli/non_foods\stim134_inanimate_plants_tree_2.png	1	2	1	tree_2	0	300		NaN	0	0		0	0	3275.022283	3275.122282	0.0999992
20549.5	0.099987	190	stimuli/foods\oyster.jpg	1	2	1	oyster	1	204	NF_067	1	0	0		0	0	3275.172291	3275.272278	0.099987
20587	0.1000238	191	stimuli/non_foods\stim139_inanimate_plants_tulip_3.png	1	2	1	tulip_3	0	305		NaN	0	0		0	0	3275.322284	3275.422308	0.1000238
20624.5	0.099989	192	stimuli/foods\dates.jpg	1	2	1	dates	1	104	NF_032	1	0	0		0	0	3275.47229	3275.572279	0.099989
20662	0.09999	193	stimuli/foods\mushroom.jpg	1	2	1	mushroom	1	194	NF_039	1	0	0		0	0	3275.622286	3275.722276	0.09999
20699.5	0.0999938	194	stimuli/non_foods\stim135_inanimate_plants_tree_3.png	1	2	1	tree_3	0	301		NaN	0	0		0	0	3275.772281	3275.872274	0.0999938
20737	0.0999833	195	stimuli/foods\savory_pie.jpg	1	2	1	savory_pie	1	257	TF_146	0	0	0		0	0	3275.922286	3276.022269	0.0999833
20774.5	0.0999955	196	stimuli/non_foods\stim029_animate_human_clown_1.png	1	2	1	clown_1	0	85		NaN	0	0		0	0	3276.072274	3276.17227	0.0999955
20812	0.0999939	197	stimuli/non_foods\stim108_inanimate_furniture_chair_4.png	1	2	1	chair_4	0	63		NaN	0	0		0	0	3276.222278	3276.322272	0.0999939
20849.5	0.0999936	198	stimuli/non_foods\stim003_animate_bird_chicken_3.png	1	2	1	chicken_3	0	68		NaN	0	0		0	0	3276.372274	3276.472267	0.0999936
20887	0.1000144	199	stimuli/non_foods\stim072_animate_mammal_kangaroo_4.png	1	2	1	kangaroo_4	0	171		NaN	0	0		0	0	3276.52227	3276.622284	0.1000144
20924.5	0.0999906	200	stimuli/non_foods\stim102_inanimate_furniture_bed_2.png	1	2	1	bed_2	0	20		NaN	0	0		0	0	3276.672272	3276.772262	0.0999906
20962	0.0999952	201	stimuli/non_foods\stim032_animate_human_clown_4.png	1	2	1	clown_4	0	88		NaN	0	0		0	0	3276.822268	3276.922263	0.0999952
20999.5	0.099994	202	stimuli/non_foods\stim089_inanimate_clothing_jeans_1.png	1	2	1	jeans_1	0	164		NaN	0	0		0	0	3276.972269	3277.072263	0.099994
21037	0.0999807	203	stimuli/non_foods\stim038_animate_human_sports_2.png	1	2	1	sports_2	0	279		NaN	0	0		0	0	3277.122295	3277.222276	0.0999807
21074.5	0.0999922	204	stimuli/foods\cracker.jpg	1	2	1	cracker	1	98	TF_043	0	0	0		0	0	3277.27227	3277.372263	0.0999922
21112	0.099984	205	stimuli/foods\lettuce.jpg	1	2	1	lettuce	1	178	NF_046	1	0	0		0	0	3277.422271	3277.522255	0.099984
21149.5	0.099993	206	stimuli/non_foods\stim122_inanimate_plants_bush_2.png	1	2	1	bush_2	0	41		NaN	0	0		0	0	3277.572263	3277.672256	0.099993
21187	0.0999873	207	stimuli/foods\gnocchi.jpg	1	2	1	gnocchi	1	140	TF_064	0	0	0		0	0	3277.722271	3277.822259	0.0999873
21224.5	0.0999931	208	stimuli/non_foods\stim116_inanimate_furniture_sofa_4.png	1	2	1	sofa_4	0	274		NaN	0	0		0	0	3277.872257	3277.97225	0.0999931
21262	0.0999948	209	stimuli/non_foods\stim125_inanimate_plants_cactus_1.png	1	2	1	cactus_1	0	49		NaN	0	0		0	0	3278.022257	3278.122252	0.0999948
21299.5	0.1000055	210	stimuli/foods\peach.jpg	1	2	1	peach	1	218	NF_079	1	0	0		0	0	3278.172264	3278.272269	0.1000055
21337	0.0999853	211	stimuli/foods\fruit_pie.jpg	1	2	1	fruit_pie	1	128	TF_147	0	0	0		0	0	3278.322261	3278.422247	0.0999853
21374.5	0.099992	212	stimuli/foods\linguine_with_clams.jpg	1	2	1	linguine_with_clams	1	181	TF_077	0	0	0		0	0	3278.472258	3278.57225	0.099992
21412	0.0999897	213	stimuli/foods\bread_roll.jpg	1	2	1	bread_roll	1	27	TF_090	0	0	0		0	0	3278.622259	3278.722249	0.0999897
21449.5	0.0999983	214	stimuli/non_foods\stim123_inanimate_plants_bush_3.png	1	2	1	bush_3	0	42		NaN	0	0		0	0	3278.772252	3278.87225	0.0999983
21487	0.0999585	215	stimuli/foods\mango.jpg	1	2	1	mango	1	185	NF_054	1	0	0		0	0	3278.922284	3279.022243	0.0999585
21524.5	0.0999751	216	stimuli/foods\ginger_root.jpg	1	2	1	ginger_root	1	131	NF_088	1	0	0		0	0	3279.072257	3279.172232	0.0999751
21562	0.099985	217	stimuli/foods\figs.jpg	1	2	1	figs	1	122	NF_035	1	0	0		0	0	3279.222252	3279.322237	0.099985
21599.5	0.1000024	218	stimuli/foods\risotto_with_peas_and_asparagus_tips.jpg	1	2	1	risotto_with_peas_and_asparagus_tips	1	252	TF_123	0	0	0		0	0	3279.372241	3279.472243	0.1000024
21637	0.0999957	219	stimuli/non_foods\stim002_animate_bird_chicken_2.png	1	2	1	chicken_2	0	67		NaN	0	0		0	0	3279.522242	3279.622238	0.0999957
21674.5	0.0999916	220	stimuli/foods\broccoli.jpg	1	2	1	broccoli	1	29	NF_016	1	0	0		0	0	3279.672247	3279.772238	0.0999916
21712	0.099991	221	stimuli/non_foods\stim012_animate_bird_parrot_4.png	1	2	1	parrot_4	0	215		NaN	0	0		0	0	3279.822242	3279.922233	0.099991
21749.5	0.1000103	222	stimuli/non_foods\stim047_animate_insect_bug_3.png	1	2	1	bug_3	0	38		NaN	0	0		0	0	3279.972235	3280.072246	0.1000103
21787	0.0999762	223	stimuli/foods\pasta_carbonara.jpg	1	2	1	pasta_carbonara	1	216	TF_027	0	0	0		0	0	3280.12226	3280.222236	0.0999762
21824.5	0.0999846	224	stimuli/foods\museli_bars.jpg	1	2	1	museli_bars	1	193	TF_008	0	0	0		0	0	3280.272245	3280.372229	0.0999846
21862	0.0999933	225	stimuli/non_foods\stim035_animate_human_faces_3.png	1	2	1	faces_3	0	119		NaN	0	0		0	0	3280.422236	3280.522229	0.0999933
21899.5	0.1000952	226	stimuli/non_foods\stim022_animate_human_baby_2.png	1	2	1	baby_2	0	11		NaN	0	0		0	0	3280.572235	3280.67233	0.1000952
21937	0.0999644	227	stimuli/foods\spinach.jpg	1	2	1	spinach	1	277	NF_094	1	0	0		0	0	3280.722261	3280.822225	0.0999644
21974.5	0.0999977	228	stimuli/foods\brownie.jpg	1	2	1	brownie	1	34	TF_011	0	0	0		0	0	3280.87223	3280.972227	0.0999977
22012	0.099994	229	stimuli/non_foods\stim039_animate_human_sports_3.png	1	2	1	sports_3	0	280		NaN	0	0		0	0	3281.022229	3281.122223	0.099994
22049.5	0.0999884	230	stimuli/foods\radish.jpg	1	2	1	radish	1	240	NF_090	1	0	0		0	0	3281.172234	3281.272223	0.0999884
22087	0.0999994	231	stimuli/non_foods\stim155_inanimate_tools_scissors_3.png	1	2	1	scissors_3	0	260		NaN	0	0		0	0	3281.322226	3281.422226	0.0999994
22124.5	0.0999856	232	stimuli/foods\mandarin.jpg	1	2	1	mandarin	1	184	NF_052	1	0	0		0	0	3281.472233	3281.572219	0.0999856
22162	0.0999986	233	stimuli/non_foods\stim159_inanimate_tools_wrench_3.png	1	2	1	wrench_3	0	312		NaN	0	0		0	0	3281.622221	3281.722219	0.0999986
22199.5	0.1000002	234	stimuli/foods\brussel_sprouts.jpg	1	2	1	brussel_sprouts	1	35	NF_021	1	0	0		0	0	3281.772229	3281.87223	0.1000002
22237	0.0999947	235	stimuli/non_foods\stim011_animate_bird_parrot_3.png	1	2	1	parrot_3	0	214		NaN	0	0		0	0	3281.922221	3282.022216	0.0999947
22274.5	0.0999969	236	stimuli/non_foods\stim033_animate_human_faces_1.png	1	2	1	faces_1	0	117		NaN	0	0		0	0	3282.072221	3282.172218	0.0999969
22312	0.0999895	237	stimuli/foods\kiwi.jpg	1	2	1	kiwi	1	172	NF_044	1	0	0		0	0	3282.222224	3282.322213	0.0999895
22349.5	0.1000114	238	stimuli/foods\pork_loin_with_peas.jpg	1	2	1	pork_loin_with_peas	1	234	TF_003	0	0	0		0	0	3282.372224	3282.472235	0.1000114
22387	0.099964	239	stimuli/foods\apple.jpg	1	2	1	apple	1	5	NF_055	1	0	0		0	0	3282.522244	3282.622208	0.099964
22424.5	0.0999878	240	stimuli/foods\smoked_ham.jpg	1	2	1	smoked_ham	1	266	TF_118	0	0	0		0	0	3282.672219	3282.772207	0.0999878
22462	0.0999944	241	stimuli/foods\chestnut.jpg	1	2	1	chestnut	1	65	NF_020	1	0	0		0	0	3282.822217	3282.922212	0.0999944
22499.5	0.099985	242	stimuli/foods\eggplant.jpg	1	2	1	eggplant	1	116	NF_059	1	1	0		0	0	3282.972218	3283.072203	0.099985
22537	0.0999876	243	stimuli/foods\nougat.jpg	1	2	1	nougat	1	197	TF_144	0	0	0		0	0	3283.122216	3283.222204	0.0999876
22574.5	0.0999976	244	stimuli/non_foods\stim055_animate_insect_dragonfly_3.png	1	2	1	dragonfly_3	0	108		NaN	0	1	f	0.3920868	1	3283.272207	3283.372205	0.0999976
22612	0.0999853	245	stimuli/foods\pepperoni_pizza.jpg	1	2	1	pepperoni_pizza	1	229	TF_106	0	0	0		0	0	3283.422213	3283.522199	0.0999853
22649.5	0.099966	246	stimuli/foods\waffle.jpg	1	2	1	waffle	1	308	TF_030	0	0	0		0	0	3283.572238	3283.672204	0.099966
22687	0.099994	247	stimuli/non_foods\stim088_inanimate_clothing_hat_4.png	1	2	1	hat_4	0	158		NaN	0	0		0	0	3283.722206	3283.8222	0.099994
22724.5	0.0999946	248	stimuli/non_foods\stim060_animate_insect_grasshopper_4.png	1	2	1	grasshopper_4	0	146		NaN	0	0		0	0	3283.872206	3283.9722	0.0999946
22762	0.099987	249	stimuli/foods\ice_cream.jpg	1	2	1	ice_cream	1	162	TF_062	0	0	0		0	0	3284.022209	3284.122196	0.099987
22799.5	0.1000332	250	stimuli/non_foods\stim152_inanimate_tools_pan_4.png	1	2	1	pan_4	0	208		NaN	0	0		0	0	3284.172202	3284.272236	0.1000332
22837	0.0999777	251	stimuli/non_foods\stim046_animate_insect_bug_2.png	1	2	1	bug_2	0	37		NaN	0	0		0	0	3284.322222	3284.422199	0.0999777
22874.5	0.0999945	252	stimuli/non_foods\stim106_inanimate_furniture_chair_2.png	1	2	1	chair_2	0	61		NaN	0	0		0	0	3284.472198	3284.572192	0.0999945
22912	0.0999975	253	stimuli/non_foods\stim016_animate_bird_peacock_4.png	1	2	1	peacock_4	0	222		NaN	0	0		0	0	3284.622195	3284.722193	0.0999975
22949.5	0.0999954	254	stimuli/non_foods\stim001_animate_bird_chicken_1.png	1	2	1	chicken_1	0	66		NaN	0	0		0	0	3284.772195	3284.87219	0.0999954
22987	0.0999935	255	stimuli/non_foods\stim053_animate_insect_dragonfly_1.png	1	2	1	dragonfly_1	0	106		NaN	0	0		0	0	3284.922195	3285.022189	0.0999935
23024.5	0.1000002	256	stimuli/non_foods\stim024_animate_human_baby_4.png	1	2	1	baby_4	0	13		NaN	0	0		0	0	3285.072194	3285.172194	0.1000002
23062	0.0999904	257	stimuli/non_foods\stim095_inanimate_clothing_shirt_3.png	1	2	1	shirt_3	0	264		NaN	0	0		0	0	3285.222196	3285.322186	0.0999904
23099.5	0.0999739	258	stimuli/non_foods\stim109_inanimate_furniture_closet_1.png	1	2	1	closet_1	0	81		NaN	0	0		0	0	3285.372211	3285.472185	0.0999739
23137	0.0999916	259	stimuli/foods\pickles.jpg	1	2	1	pickles	1	230	TF_134	0	0	0		0	0	3285.522191	3285.622183	0.0999916
23174.5	0.0999959	260	stimuli/non_foods\stim143_inanimate_tools_broom_3.png	1	2	1	broom_3	0	32		NaN	0	0		0	0	3285.672185	3285.772181	0.0999959
23212	0.0999937	261	stimuli/non_foods\stim149_inanimate_tools_pan_1.png	1	2	1	pan_1	0	205		NaN	0	0		0	0	3285.822184	3285.922178	0.0999937
23249.5	0.099995	262	stimuli/foods\frankfurters.jpg	1	2	1	frankfurters	1	123	TF_156	0	0	0		0	0	3285.972194	3286.072189	0.099995
23287	0.0999878	263	stimuli/foods\cream_donuts.jpg	1	2	1	cream_donuts	1	99	TF_014	0	0	0		0	0	3286.122189	3286.222177	0.0999878
23324.5	0.0999898	264	stimuli/foods\rice.jpg	1	2	1	rice	1	250	TF_121	0	0	0		0	0	3286.272184	3286.372174	0.0999898
23362	0.0999864	265	stimuli/foods\oregano.jpg	1	2	1	oregano	1	202	NF_066	1	0	0		0	0	3286.422187	3286.522174	0.0999864
23399.5	0.099987	266	stimuli/foods\egg.jpg	1	2	1	egg	1	115	NF_095	1	0	0		0	0	3286.572186	3286.672173	0.099987
23437	0.0999885	267	stimuli/foods\blackberry.jpg	1	2	1	blackberry	1	24	NF_063	1	0	0		0	0	3286.722184	3286.822172	0.0999885
23474.5	0.09999	268	stimuli/non_foods\stim129_inanimate_plants_sunflower_1.png	1	2	1	sunflower_1	0	286		NaN	0	0		0	0	3286.872178	3286.972168	0.09999
23512	0.0999899	269	stimuli/foods\calamari.jpg	1	2	1	calamari	1	53	TF_019	0	0	0		0	0	3287.022177	3287.122167	0.0999899
23549.5	0.0999604	270	stimuli/foods\cooked_prawn.jpg	1	2	1	cooked_prawn	1	92	TF_060	0	0	0		0	0	3287.172209	3287.272169	0.0999604
23587	0.0999819	271	stimuli/foods\meatballs.jpg	1	2	1	meatballs	1	186	TF_112	0	0	0		0	0	3287.322183	3287.422165	0.0999819
23624.5	0.1000003	272	stimuli/non_foods\stim157_inanimate_tools_wrench_1.png	1	2	1	wrench_1	0	310		NaN	0	0		0	0	3287.472166	3287.572166	0.1000003
23662	0.0999883	273	stimuli/foods\nectarine.jpg	1	2	1	nectarine	1	196	NF_078	1	0	0		0	0	3287.622177	3287.722166	0.0999883
23699.5	0.1000148	274	stimuli/non_foods\stim154_inanimate_tools_scissors_2.png	1	2	1	scissors_2	0	259		NaN	0	0		0	0	3287.772169	3287.872184	0.1000148
23737	0.0999986	275	stimuli/non_foods\stim105_inanimate_furniture_chair_1.png	1	2	1	chair_1	0	60		NaN	0	0		0	0	3287.922163	3288.022162	0.0999986
23774.5	0.0999887	276	stimuli/non_foods\stim061_animate_mammal_cow_1.png	1	2	1	cow_1	0	94		NaN	0	0		0	0	3288.072167	3288.172156	0.0999887
23812	0.0999904	277	stimuli/non_foods\stim110_inanimate_furniture_closet_2.png	1	2	1	closet_2	0	82		NaN	0	0		0	0	3288.222166	3288.322156	0.0999904
23849.5	0.0999864	278	stimuli/foods\peas.jpg	1	2	1	peas	1	224	NF_081	1	0	0		0	0	3288.372169	3288.472155	0.0999864
23887	0.0999881	279	stimuli/foods\papaya.jpg	1	2	1	papaya	1	210	NF_069	1	0	0		0	0	3288.522167	3288.622155	0.0999881
23924.5	0.0999811	280	stimuli/foods\taco.jpg	1	2	1	taco	1	295	TF_141	0	0	0		0	0	3288.672164	3288.772145	0.0999811
23962	0.1000051	281	stimuli/foods\pork_and_rice.jpg	1	2	1	pork_and_rice	1	233	TF_080	0	0	0		0	0	3288.822168	3288.922173	0.1000051
23999.5	0.0999767	282	stimuli/foods\fried_zucchini.jpg	1	2	1	fried_zucchini	1	125	TF_159	0	0	0		0	0	3288.972174	3289.072151	0.0999767
24037	0.0999884	283	stimuli/foods\avocado.jpg	1	2	1	avocado	1	9	NF_012	1	0	0		0	0	3289.122162	3289.22215	0.0999884
24074.5	0.0999894	284	stimuli/foods\hotdog.jpg	1	2	1	hotdog	1	161	TF_070	0	0	0		0	0	3289.272158	3289.372148	0.0999894
24112	0.1000102	285	stimuli/non_foods\stim160_inanimate_tools_wrench_4.png	1	2	1	wrench_4	0	313		NaN	0	0		0	0	3289.422148	3289.522159	0.1000102
24149.5	0.0999822	286	stimuli/non_foods\stim151_inanimate_tools_pan_3.png	1	2	1	pan_3	0	207		NaN	0	0		0	0	3289.572178	3289.67216	0.0999822
24187	0.0999909	287	stimuli/foods\pumpkin.jpg	1	2	1	pumpkin	1	239	NF_101	1	0	0		0	0	3289.722154	3289.822145	0.0999909
24224.5	0.0999919	288	stimuli/foods\parmesan_cheese.jpg	1	2	1	parmesan_cheese	1	211	TF_091	0	0	0		0	0	3289.872154	3289.972145	0.0999919
24262	0.0999881	289	stimuli/foods\corncob.jpg	1	2	1	corncob	1	93	NF_051	1	0	0		0	0	3290.022152	3290.12214	0.0999881
24299.5	0.0999945	290	stimuli/non_foods\stim150_inanimate_tools_pan_2.png	1	2	1	pan_2	0	206		NaN	0	0		0	0	3290.172144	3290.272139	0.0999945
24337	0.0999795	291	stimuli/foods\fried_calamari.jpg	1	2	1	fried_calamari	1	124	TF_020	0	0	0		0	0	3290.322152	3290.422132	0.0999795
24374.5	0.1000073	292	stimuli/non_foods\stim006_animate_bird_duck_2.png	1	2	1	duck_2	0	112		NaN	0	1	f	0	0	3290.472133	3290.572141	0.1000073
24412	0.1000205	293	stimuli/non_foods\stim138_inanimate_plants_tulip_2.png	1	2	1	tulip_2	0	304		NaN	0	0		0	0	3290.622139	3290.72216	0.1000205
24449.5	0.0999915	294	stimuli/non_foods\stim020_animate_bird_penguin_4.png	1	2	1	penguin_4	0	228		NaN	0	0		0	0	3290.772142	3290.872134	0.0999915
24487	0.0999851	295	stimuli/foods\fennel.jpg	1	2	1	fennel	1	121	NF_036	1	0	0		0	0	3290.922145	3291.022131	0.0999851
24524.5	0.0999936	296	stimuli/non_foods\stim051_animate_insect_butterfly_3.png	1	2	1	butterfly_3	0	46		NaN	0	0		0	0	3291.072139	3291.172133	0.0999936
24562	0.0999923	297	stimuli/foods\omelette.jpg	1	2	1	omelette	1	199	TF_057	0	0	0		0	0	3291.222144	3291.322136	0.0999923
24599.5	0.0999779	298	stimuli/foods\cinnamon_sroll.jpg	1	2	1	cinnamon_sroll	1	80	TF_021	0	0	0		0	0	3291.372162	3291.47214	0.0999779
24637	0.0999901	299	stimuli/foods\almonds.jpg	1	2	1	almonds	1	0	NF_053	1	0	0		0	0	3291.522139	3291.622129	0.0999901
24674.5	0.0999945	300	stimuli/non_foods\stim036_animate_human_faces_4.png	1	2	1	faces_4	0	120		NaN	0	0		0	0	3291.67213	3291.772125	0.0999945
24712	0.0999986	301	stimuli/non_foods\stim017_animate_bird_penguin_1.png	1	2	1	penguin_1	0	225		NaN	0	0		0	0	3291.822132	3291.92213	0.0999986
24749.5	0.0999922	302	stimuli/non_foods\stim085_inanimate_clothing_hat_1.png	1	2	1	hat_1	0	155		NaN	0	0		0	0	3291.972131	3292.072123	0.0999922
24787	0.0999912	303	stimuli/non_foods\stim077_animate_mammal_rhino_1.png	1	2	1	rhino_1	0	246		NaN	0	0		0	0	3292.122129	3292.22212	0.0999912
24824.5	0.099994	304	stimuli/foods\carrot.jpg	1	2	1	carrot	1	56	NF_019	1	0	0		0	0	3292.272131	3292.372125	0.099994
24862	0.1000067	305	stimuli/foods\cherry.jpg	1	2	1	cherry	1	64	NF_027	1	0	0		0	0	3292.42213	3292.522137	0.1000067
24899.5	0.0999847	306	stimuli/foods\potatoes.jpg	1	2	1	potatoes	1	237	NF_071	1	0	0		0	0	3292.572131	3292.672116	0.0999847
24937	0.0999928	307	stimuli/non_foods\stim010_animate_bird_parrot_2.png	1	2	1	parrot_2	0	213		NaN	0	0		0	0	3292.722122	3292.822115	0.0999928
24974.5	0.0999876	308	stimuli/foods\donut.jpg	1	2	1	donut	1	105	TF_032	0	0	0		0	0	3292.872124	3292.972112	0.0999876
25012	0.1000138	309	stimuli/foods\cuttlefish.jpg	1	2	1	cuttlefish	1	103	NF_093	1	0	0		0	0	3293.022127	3293.122141	0.1000138
25049.5	0.0999697	310	stimuli/non_foods\stim086_inanimate_clothing_hat_2.png	1	2	1	hat_2	0	156		NaN	0	0		0	0	3293.172135	3293.272104	0.0999697
25087	0.0999891	311	stimuli/foods\beetroots.jpg	1	2	1	beetroots	1	23	NF_015	1	0	0		0	0	3293.32212	3293.42211	0.0999891
25124.5	0.0999898	312	stimuli/foods\lollies.jpg	1	2	1	lollies	1	183	TF_026	0	0	0		0	0	3293.472121	3293.572111	0.0999898
25162	0.0999914	313	stimuli/foods\lasagna.jpg	1	2	1	lasagna	1	174	TF_076	0	0	0		0	0	3293.622117	3293.722109	0.0999914
25607.75	0.0999832	314	stimuli/foods\spring_onions.jpg	1	3	1	spring_onions	1	282	NF_086	1	0	0		0	0	3295.405444	3295.505427	0.0999832
25645.25	0.0999896	315	stimuli/foods\spaghetti_with_olives_and_capers.jpg	1	3	1	spaghetti_with_olives_and_capers	1	276	TF_135	0	0	0		0	0	3295.555436	3295.655426	0.0999896
25682.75	0.1000005	316	stimuli/non_foods\stim021_animate_human_baby_1.png	1	3	1	baby_1	0	10		NaN	0	0		0	0	3295.705422	3295.805422	0.1000005
25720.25	0.0999963	317	stimuli/non_foods\stim137_inanimate_plants_tulip_1.png	1	3	1	tulip_1	0	303		NaN	0	0		0	0	3295.855426	3295.955422	0.0999963
25757.75	0.0999891	318	stimuli/foods\fruit_salad.jpg	1	3	1	fruit_salad	1	129	NF_043	1	0	0		0	0	3296.005431	3296.10542	0.0999891
25795.25	0.0999957	319	stimuli/non_foods\stim078_animate_mammal_rhino_2.png	1	3	1	rhino_2	0	247		NaN	0	0		0	0	3296.155423	3296.255418	0.0999957
25832.75	0.099986	320	stimuli/foods\lime.jpg	1	3	1	lime	1	180	NF_048	1	0	0		0	0	3296.305429	3296.405415	0.099986
25870.25	0.0999881	321	stimuli/foods\calamari.jpg	1	3	1	calamari	1	53	TF_019	0	0	0		0	0	3296.455428	3296.555417	0.0999881
25907.75	0.099998	322	stimuli/non_foods\stim149_inanimate_tools_pan_1.png	1	3	1	pan_1	0	205		NaN	0	0		0	0	3296.605421	3296.705419	0.099998
25945.25	0.0999865	323	stimuli/foods\croissant.jpg	1	3	1	croissant	1	100	TF_037	0	0	0		0	0	3296.755424	3296.85541	0.0999865
25982.75	0.0999982	324	stimuli/non_foods\stim048_animate_insect_bug_4.png	1	3	1	bug_4	0	39		NaN	0	0		0	0	3296.905411	3297.005409	0.0999982
26020.25	0.0999971	325	stimuli/non_foods\stim008_animate_bird_duck_4.png	1	3	1	duck_4	0	114		NaN	0	0		0	0	3297.055406	3297.155403	0.0999971
26057.75	0.1000027	326	stimuli/non_foods\stim102_inanimate_furniture_bed_2.png	1	3	1	bed_2	0	20		NaN	0	0		0	0	3297.205407	3297.305409	0.1000027
26095.25	0.0999885	327	stimuli/foods\raw_sausage.jpg	1	3	1	raw_sausage	1	243	TF_131	0	0	0		0	0	3297.355421	3297.455409	0.0999885
26132.75	0.0999958	328	stimuli/non_foods\stim082_inanimate_clothing_gloves_2.png	1	3	1	gloves_2	0	137		NaN	0	0		0	0	3297.505412	3297.605408	0.0999958
26170.25	0.0999894	329	stimuli/foods\chocolate_pudding.jpg	1	3	1	chocolate_pudding	1	78	TF_018	0	0	0		0	0	3297.655416	3297.755405	0.0999894
26207.75	0.0999834	330	stimuli/foods\fried_zucchini.jpg	1	3	1	fried_zucchini	1	125	TF_159	0	0	0		0	0	3297.805418	3297.905401	0.0999834
26245.25	0.0999933	331	stimuli/non_foods\stim114_inanimate_furniture_sofa_2.png	1	3	1	sofa_2	0	272		NaN	0	0		0	0	3297.955409	3298.055402	0.0999933
26282.75	0.0999961	332	stimuli/non_foods\stim029_animate_human_clown_1.png	1	3	1	clown_1	0	85		NaN	0	0		0	0	3298.105405	3298.205401	0.0999961
26320.25	0.099952	333	stimuli/non_foods\stim034_animate_human_faces_2.png	1	3	1	faces_2	0	118		NaN	0	0		0	0	3298.255418	3298.35537	0.099952
26357.75	0.0999874	334	stimuli/foods\lemon.jpg	1	3	1	lemon	1	175	NF_049	1	0	0		0	0	3298.405411	3298.505398	0.0999874
26395.25	0.0999861	335	stimuli/foods\cabbage.jpg	1	3	1	cabbage	1	48	NF_025	1	0	0		0	0	3298.555411	3298.655397	0.0999861
26432.75	0.0999964	336	stimuli/non_foods\stim045_animate_insect_bug_1.png	1	3	1	bug_1	0	36		NaN	0	0		0	0	3298.705399	3298.805395	0.0999964
26470.25	0.0999956	337	stimuli/foods\potato_and_green_bean_salad.jpg	1	3	1	potato_and_green_bean_salad	1	235	TF_072	0	0	0		0	0	3298.855402	3298.955398	0.0999956
26507.75	0.0999907	338	stimuli/foods\nectarine.jpg	1	3	1	nectarine	1	196	NF_078	1	1	0		0	0	3299.005404	3299.105395	0.0999907
26545.25	0.099995	339	stimuli/non_foods\stim019_animate_bird_penguin_3.png	1	3	1	penguin_3	0	227		NaN	0	0		0	0	3299.155395	3299.25539	0.099995
26582.75	0.0999966	340	stimuli/non_foods\stim143_inanimate_tools_broom_3.png	1	3	1	broom_3	0	32		NaN	0	0		0	0	3299.305394	3299.40539	0.0999966
26620.25	0.0999948	341	stimuli/non_foods\stim128_inanimate_plants_cactus_4.png	1	3	1	cactus_4	0	52		NaN	0	0		0	0	3299.455393	3299.555388	0.0999948
26657.75	0.0999944	342	stimuli/non_foods\stim023_animate_human_baby_3.png	1	3	1	baby_3	0	12		NaN	0	0		0	0	3299.605393	3299.705387	0.0999944
26695.25	0.0999889	343	stimuli/foods\peach.jpg	1	3	1	peach	1	218	NF_079	1	0	0		0	0	3299.7554	3299.855388	0.0999889
26732.75	0.0999924	344	stimuli/non_foods\stim039_animate_human_sports_3.png	1	3	1	sports_3	0	280		NaN	0	0		0	0	3299.905391	3300.005384	0.0999924
26770.25	0.0999952	345	stimuli/non_foods\stim155_inanimate_tools_scissors_3.png	1	3	1	scissors_3	0	260		NaN	0	0		0	0	3300.055388	3300.155384	0.0999952
26807.75	0.099994	346	stimuli/non_foods\stim122_inanimate_plants_bush_2.png	1	3	1	bush_2	0	41		NaN	0	0		0	0	3300.205388	3300.305382	0.099994
26845.25	0.0999976	347	stimuli/foods\onion.jpg	1	3	1	onion	1	200	NF_029	1	0	0		0	0	3300.355383	3300.455381	0.0999976
26882.75	0.0999936	348	stimuli/foods\bagel.jpg	1	3	1	bagel	1	14	TF_005	0	0	0		0	0	3300.505383	3300.605377	0.0999936
26920.25	0.0999956	349	stimuli/non_foods\stim009_animate_bird_parrot_1.png	1	3	1	parrot_1	0	212		NaN	0	0		0	0	3300.655381	3300.755376	0.0999956
26957.75	0.0999879	350	stimuli/foods\pancakes.jpg	1	3	1	pancakes	1	209	TF_058	0	0	0		0	0	3300.805391	3300.905379	0.0999879
26995.25	0.0999905	351	stimuli/non_foods\stim091_inanimate_clothing_jeans_3.png	1	3	1	jeans_3	0	166		NaN	0	0		0	0	3300.955384	3301.055375	0.0999905
27032.75	0.1000039	352	stimuli/non_foods\stim017_animate_bird_penguin_1.png	1	3	1	penguin_1	0	225		NaN	0	0		0	0	3301.10537	3301.205374	0.1000039
27070.25	0.0999882	353	stimuli/non_foods\stim108_inanimate_furniture_chair_4.png	1	3	1	chair_4	0	63		NaN	0	0		0	0	3301.255373	3301.355362	0.0999882
27107.75	0.0999919	354	stimuli/non_foods\stim111_inanimate_furniture_closet_3.png	1	3	1	closet_3	0	83		NaN	0	0		0	0	3301.405372	3301.505364	0.0999919
27145.25	0.0999961	355	stimuli/non_foods\stim097_inanimate_clothing_socks_1.png	1	3	1	socks_1	0	267		NaN	0	0		0	0	3301.555367	3301.655363	0.0999961
27182.75	0.1000155	356	stimuli/non_foods\stim054_animate_insect_dragonfly_2.png	1	3	1	dragonfly_2	0	107		NaN	0	0		0	0	3301.705352	3301.805367	0.1000155
27220.25	0.099992	357	stimuli/foods\fruit_flan.jpg	1	3	1	fruit_flan	1	127	TF_093	0	0	0		0	0	3301.855376	3301.955368	0.099992
27257.75	0.099998	358	stimuli/non_foods\stim093_inanimate_clothing_shirt_1.png	1	3	1	shirt_1	0	262		NaN	0	0		0	0	3302.005371	3302.105369	0.099998
27295.25	0.0999904	359	stimuli/non_foods\stim005_animate_bird_duck_1.png	1	3	1	duck_1	0	111		NaN	0	0		0	0	3302.155369	3302.255359	0.0999904
27332.75	0.0999883	360	stimuli/foods\chilli.jpg	1	3	1	chilli	1	74	NF_073	1	0	0		0	0	3302.305375	3302.405363	0.0999883
27370.25	0.0999967	361	stimuli/non_foods\stim145_inanimate_tools_hammer_1.png	1	3	1	hammer_1	0	151		NaN	0	0		0	0	3302.455364	3302.555361	0.0999967
27407.75	0.0999909	362	stimuli/non_foods\stim007_animate_bird_duck_3.png	1	3	1	duck_3	0	113		NaN	0	0		0	0	3302.605367	3302.705358	0.0999909
27445.25	0.0999975	363	stimuli/non_foods\stim071_animate_mammal_kangaroo_3.png	1	3	1	kangaroo_3	0	170		NaN	0	0		0	0	3302.755364	3302.855361	0.0999975
27482.75	0.0999915	364	stimuli/non_foods\stim112_inanimate_furniture_closet_4.png	1	3	1	closet_4	0	84		NaN	0	0		0	0	3302.905365	3303.005357	0.0999915
27520.25	0.0999875	365	stimuli/foods\cannoli.jpg	1	3	1	cannoli	1	54	TF_022	0	0	0		0	0	3303.055369	3303.155356	0.0999875
27557.75	0.099985	366	stimuli/foods\dried_figs.jpg	1	3	1	dried_figs	1	110	TF_054	0	0	0		0	0	3303.205368	3303.305353	0.099985
27595.25	0.0999886	367	stimuli/foods\rice_cake.jpg	1	3	1	rice_cake	1	251	TF_059	0	0	0		0	0	3303.355364	3303.455353	0.0999886
27632.75	0.0999983	368	stimuli/non_foods\stim002_animate_bird_chicken_2.png	1	3	1	chicken_2	0	67		NaN	1	0		0	0	3303.505355	3303.605353	0.0999983
27670.25	0.0999923	369	stimuli/non_foods\stim072_animate_mammal_kangaroo_4.png	1	3	1	kangaroo_4	0	171		NaN	0	0		0	0	3303.655355	3303.755348	0.0999923
27707.75	0.0999931	370	stimuli/non_foods\stim033_animate_human_faces_1.png	1	3	1	faces_1	0	117		NaN	0	0		0	0	3303.805354	3303.905347	0.0999931
27745.25	0.0999928	371	stimuli/foods\parmesan_cheese.jpg	1	3	1	parmesan_cheese	1	211	TF_091	0	0	1	f	0.4423244	1	3303.955361	3304.055353	0.0999928
27782.75	0.0999756	372	stimuli/foods\beetroots.jpg	1	3	1	beetroots	1	23	NF_015	1	0	0		0	0	3304.105372	3304.205348	0.0999756
27820.25	0.0999947	373	stimuli/foods\eggplant.jpg	1	3	1	eggplant	1	116	NF_059	1	0	0		0	0	3304.255357	3304.355352	0.0999947
27857.75	0.0999949	374	stimuli/non_foods\stim130_inanimate_plants_sunflower_2.png	1	3	1	sunflower_2	0	287		NaN	0	0		0	0	3304.405349	3304.505343	0.0999949
27895.25	0.099985	375	stimuli/foods\blackberry.jpg	1	3	1	blackberry	1	24	NF_063	1	0	0		0	0	3304.555354	3304.655339	0.099985
27932.75	0.0999863	376	stimuli/non_foods\stim141_inanimate_tools_broom_1.png	1	3	1	broom_1	0	30		NaN	0	0		0	0	3304.705354	3304.80534	0.0999863
27970.25	0.0999927	377	stimuli/non_foods\stim013_animate_bird_peacock_1.png	1	3	1	peacock_1	0	219		NaN	0	0		0	0	3304.855346	3304.955338	0.0999927
28007.75	0.0999867	378	stimuli/foods\cooked_ham.jpg	1	3	1	cooked_ham	1	91	TF_116	0	0	0		0	0	3305.005352	3305.105339	0.0999867
28045.25	0.0999881	379	stimuli/foods\omelette.jpg	1	3	1	omelette	1	199	TF_057	0	0	0		0	0	3305.155348	3305.255336	0.0999881
28082.75	0.0999875	380	stimuli/foods\tomato.jpg	1	3	1	tomato	1	298	NF_084	1	0	0		0	0	3305.305346	3305.405334	0.0999875
28120.25	0.0999909	381	stimuli/foods\pickles.jpg	1	3	1	pickles	1	230	TF_134	0	0	0		0	0	3305.455345	3305.555336	0.0999909
28157.75	0.0999889	382	stimuli/foods\dates.jpg	1	3	1	dates	1	104	NF_032	1	0	0		0	0	3305.605344	3305.705333	0.0999889
28195.25	0.0999831	383	stimuli/foods\spinach.jpg	1	3	1	spinach	1	277	NF_094	1	0	0		0	0	3305.755341	3305.855324	0.0999831
28232.75	0.0999996	384	stimuli/non_foods\stim012_animate_bird_parrot_4.png	1	3	1	parrot_4	0	215		NaN	0	0		0	0	3305.905332	3306.005332	0.0999996
28270.25	0.0999986	385	stimuli/foods\cream_donuts.jpg	1	3	1	cream_donuts	1	99	TF_014	0	0	0		0	0	3306.055329	3306.155328	0.0999986
28307.75	0.0999975	386	stimuli/non_foods\stim123_inanimate_plants_bush_3.png	1	3	1	bush_3	0	42		NaN	0	0		0	0	3306.20533	3306.305327	0.0999975
28345.25	0.0999866	387	stimuli/non_foods\stim073_animate_mammal_monkey_1.png	1	3	1	monkey_1	0	188		NaN	0	0		0	0	3306.355332	3306.455319	0.0999866
28382.75	0.0999909	388	stimuli/non_foods\stim110_inanimate_furniture_closet_2.png	1	3	1	closet_2	0	82		NaN	0	0		0	0	3306.505334	3306.605325	0.0999909
28420.25	0.0999986	389	stimuli/non_foods\stim148_inanimate_tools_hammer_4.png	1	3	1	hammer_4	0	154		NaN	0	0		0	0	3306.655326	3306.755324	0.0999986
28457.75	0.0999932	390	stimuli/non_foods\stim158_inanimate_tools_wrench_2.png	1	3	1	wrench_2	0	311		NaN	0	0		0	0	3306.805327	3306.90532	0.0999932
28495.25	0.099996	391	stimuli/non_foods\stim031_animate_human_clown_3.png	1	3	1	clown_3	0	87		NaN	0	0		0	0	3306.955323	3307.055319	0.099996
28532.75	0.100007	392	stimuli/non_foods\stim010_animate_bird_parrot_2.png	1	3	1	parrot_2	0	213		NaN	0	0		0	0	3307.105322	3307.205329	0.100007
28570.25	0.0999979	393	stimuli/non_foods\stim074_animate_mammal_monkey_2.png	1	3	1	monkey_2	0	189		NaN	0	0		0	0	3307.255322	3307.35532	0.0999979
28607.75	0.0999947	394	stimuli/non_foods\stim032_animate_human_clown_4.png	1	3	1	clown_4	0	88		NaN	0	0		0	0	3307.405321	3307.505315	0.0999947
28645.25	0.099987	395	stimuli/foods\cauliflower.jpg	1	3	1	cauliflower	1	57	NF_022	1	0	0		0	0	3307.555326	3307.655313	0.099987
28682.75	0.0999947	396	stimuli/non_foods\stim085_inanimate_clothing_hat_1.png	1	3	1	hat_1	0	155		NaN	0	0		0	0	3307.705317	3307.805312	0.0999947
28720.25	0.0999969	397	stimuli/non_foods\stim103_inanimate_furniture_bed_3.png	1	3	1	bed_3	0	21		NaN	0	0		0	0	3307.855319	3307.955316	0.0999969
28757.75	0.0999944	398	stimuli/non_foods\stim090_inanimate_clothing_jeans_2.png	1	3	1	jeans_2	0	165		NaN	0	0		0	0	3308.005317	3308.105312	0.0999944
28795.25	0.0999787	399	stimuli/non_foods\stim077_animate_mammal_rhino_1.png	1	3	1	rhino_1	0	246		NaN	0	0		0	0	3308.155315	3308.255293	0.0999787
28832.75	0.0999862	400	stimuli/foods\banana.jpg	1	3	1	banana	1	18	NF_013	1	0	0		0	0	3308.305322	3308.405308	0.0999862
28870.25	0.0999972	401	stimuli/non_foods\stim080_animate_mammal_rhino_4.png	1	3	1	rhino_4	0	249		NaN	0	0		0	0	3308.45531	3308.555307	0.0999972
28907.75	0.0999979	402	stimuli/non_foods\stim118_inanimate_furniture_table_2.png	1	3	1	table_2	0	292		NaN	0	0		0	0	3308.605308	3308.705306	0.0999979
28945.25	0.0999943	403	stimuli/non_foods\stim059_animate_insect_grasshopper_3.png	1	3	1	grasshopper_3	0	145		NaN	0	0		0	0	3308.755311	3308.855306	0.0999943
28982.75	0.0999911	404	stimuli/foods\baked_cod_with_carrots_and_green_beans.jpg	1	3	1	baked_cod_with_carrots_and_green_beans	1	16	TF_082	0	0	0		0	0	3308.905311	3309.005302	0.0999911
29020.25	0.0999799	405	stimuli/foods\orange.jpg	1	3	1	orange	1	201	NF_008	1	0	0		0	0	3309.055313	3309.155293	0.0999799
29057.75	0.0999751	406	stimuli/foods\almonds.jpg	1	3	1	almonds	1	0	NF_053	1	0	0		0	0	3309.205315	3309.30529	0.0999751
29095.25	0.1000408	407	stimuli/foods\cherry.jpg	1	3	1	cherry	1	64	NF_027	1	0	0		0	0	3309.355284	3309.455325	0.1000408
29132.75	0.1000822	408	stimuli/foods\corncob.jpg	1	3	1	corncob	1	93	NF_051	1	0	0		0	0	3309.505293	3309.605376	0.1000822
29170.25	0.0999953	409	stimuli/non_foods\stim156_inanimate_tools_scissors_4.png	1	3	1	scissors_4	0	261		NaN	0	0		0	0	3309.6553	3309.755295	0.0999953
29207.75	0.0999961	410	stimuli/non_foods\stim079_animate_mammal_rhino_3.png	1	3	1	rhino_3	0	248		NaN	0	1	f	0	0	3309.805298	3309.905294	0.0999961
29245.25	0.0999902	411	stimuli/foods\rice.jpg	1	3	1	rice	1	250	TF_121	0	0	0		0	0	3309.955306	3310.055296	0.0999902
29282.75	0.0999952	412	stimuli/non_foods\stim025_animate_human_child_1.png	1	3	1	child_1	0	70		NaN	0	0		0	0	3310.105294	3310.205289	0.0999952
29320.25	0.0999993	413	stimuli/non_foods\stim020_animate_bird_penguin_4.png	1	3	1	penguin_4	0	228		NaN	0	0		0	0	3310.255293	3310.355292	0.0999993
29357.75	0.0999908	414	stimuli/non_foods\stim018_animate_bird_penguin_2.png	1	3	1	penguin_2	0	226		NaN	0	0		0	0	3310.405294	3310.505285	0.0999908
29395.25	0.0999955	415	stimuli/non_foods\stim037_animate_human_sports_1.png	1	3	1	sports_1	0	278		NaN	0	0		0	0	3310.55529	3310.655286	0.0999955
29432.75	0.0999893	416	stimuli/foods\toasted_bread_with_tomatoes.jpg	1	3	1	toasted_bread_with_tomatoes	1	297	TF_017	0	0	0		0	0	3310.705299	3310.805289	0.0999893
29470.25	0.0999916	417	stimuli/non_foods\stim109_inanimate_furniture_closet_1.png	1	3	1	closet_1	0	81		NaN	0	0		0	0	3310.85529	3310.955282	0.0999916
29507.75	0.1000953	418	stimuli/foods\risotto_with_peas_and_asparagus_tips.jpg	1	3	1	risotto_with_peas_and_asparagus_tips	1	252	TF_123	0	0	0		0	0	3311.005292	3311.105387	0.1000953
29545.25	0.0999862	419	stimuli/foods\gnocchi.jpg	1	3	1	gnocchi	1	140	TF_064	0	0	0		0	0	3311.155293	3311.25528	0.0999862
29582.75	0.0999916	420	stimuli/foods\cuttlefish.jpg	1	3	1	cuttlefish	1	103	NF_093	1	0	0		0	0	3311.305289	3311.40528	0.0999916
29620.25	0.0999956	421	stimuli/non_foods\stim057_animate_insect_grasshopper_1.png	1	3	1	grasshopper_1	0	143		NaN	0	0		0	0	3311.455285	3311.55528	0.0999956
29657.75	0.0999925	422	stimuli/non_foods\stim088_inanimate_clothing_hat_4.png	1	3	1	hat_4	0	158		NaN	0	0		0	0	3311.605284	3311.705276	0.0999925
29695.25	0.0999908	423	stimuli/foods\pumpkin.jpg	1	3	1	pumpkin	1	239	NF_101	1	0	0		0	0	3311.755288	3311.855279	0.0999908
29732.75	0.0999877	424	stimuli/foods\hazelnuts.jpg	1	3	1	hazelnuts	1	159	NF_065	1	0	0		0	0	3311.905286	3312.005274	0.0999877
29770.25	0.0999964	425	stimuli/non_foods\stim146_inanimate_tools_hammer_2.png	1	3	1	hammer_2	0	152		NaN	0	0		0	0	3312.055279	3312.155275	0.0999964
29807.75	0.0999911	426	stimuli/foods\raw_ham.jpg	1	3	1	raw_ham	1	242	TF_117	0	0	0		0	0	3312.205284	3312.305275	0.0999911
29845.25	0.0999961	427	stimuli/non_foods\stim028_animate_human_child_4.png	1	3	1	child_4	0	73		NaN	0	0		0	0	3312.355273	3312.455269	0.0999961
29882.75	0.0999932	428	stimuli/non_foods\stim105_inanimate_furniture_chair_1.png	1	3	1	chair_1	0	60		NaN	0	0		0	0	3312.505276	3312.605269	0.0999932
29920.25	0.0999873	429	stimuli/non_foods\stim014_animate_bird_peacock_2.png	1	3	1	peacock_2	0	220		NaN	0	0		0	0	3312.655278	3312.755265	0.0999873
29957.75	0.0999939	430	stimuli/non_foods\stim011_animate_bird_parrot_3.png	1	3	1	parrot_3	0	214		NaN	0	0		0	0	3312.805273	3312.905267	0.0999939
29995.25	0.0999962	431	stimuli/non_foods\stim154_inanimate_tools_scissors_2.png	1	3	1	scissors_2	0	259		NaN	0	0		0	0	3312.955274	3313.05527	0.0999962
30032.75	0.0999869	432	stimuli/foods\taco.jpg	1	3	1	taco	1	295	TF_141	0	0	0		0	0	3313.105274	3313.205261	0.0999869
30070.25	0.099998	433	stimuli/non_foods\stim024_animate_human_baby_4.png	1	3	1	baby_4	0	13		NaN	0	0		0	0	3313.255267	3313.355265	0.099998
30107.75	0.0999885	434	stimuli/foods\baguette.jpg	1	3	1	baguette	1	15	TF_006	0	0	0		0	0	3313.405274	3313.505262	0.0999885
30145.25	0.0999856	435	stimuli/foods\raisins.jpg	1	3	1	raisins	1	241	NF_096	1	0	0		0	0	3313.555273	3313.655258	0.0999856
30182.75	0.0999924	436	stimuli/foods\grapefruits.jpg	1	3	1	grapefruits	1	141	NF_085	1	0	0		0	0	3313.705269	3313.805261	0.0999924
30220.25	0.0999935	437	stimuli/non_foods\stim051_animate_insect_butterfly_3.png	1	3	1	butterfly_3	0	46		NaN	0	0		0	0	3313.855261	3313.955255	0.0999935
30257.75	0.099987	438	stimuli/foods\baked_lamb_with_potatoes.jpg	1	3	1	baked_lamb_with_potatoes	1	17	TF_001	0	0	0		0	0	3314.005266	3314.105253	0.099987
30295.25	0.0999984	439	stimuli/non_foods\stim119_inanimate_furniture_table_3.png	1	3	1	table_3	0	293		NaN	0	0		0	0	3314.155258	3314.255257	0.0999984
30332.75	0.0999946	440	stimuli/non_foods\stim089_inanimate_clothing_jeans_1.png	1	3	1	jeans_1	0	164		NaN	0	0		0	0	3314.305258	3314.405252	0.0999946
30370.25	0.0999963	441	stimuli/non_foods\stim115_inanimate_furniture_sofa_3.png	1	3	1	sofa_3	0	273		NaN	0	0		0	0	3314.455257	3314.555253	0.0999963
30407.75	0.0999867	442	stimuli/foods\fruit_pie.jpg	1	3	1	fruit_pie	1	128	TF_147	0	0	0		0	0	3314.605263	3314.70525	0.0999867
30445.25	0.0999843	443	stimuli/foods\bread_roll.jpg	1	3	1	bread_roll	1	27	TF_090	0	0	0		0	0	3314.755258	3314.855242	0.0999843
30482.75	0.0999821	444	stimuli/foods\ice_cream.jpg	1	3	1	ice_cream	1	162	TF_062	0	0	0		0	0	3314.905261	3315.005243	0.0999821
30520.25	0.0999961	445	stimuli/foods\pasta_carbonara.jpg	1	3	1	pasta_carbonara	1	216	TF_027	0	0	0		0	0	3315.055256	3315.155252	0.0999961
30557.75	0.0999915	446	stimuli/foods\papaya.jpg	1	3	1	papaya	1	210	NF_069	1	0	0		0	0	3315.205256	3315.305248	0.0999915
30595.25	0.0999813	447	stimuli/foods\broccoli.jpg	1	3	1	broccoli	1	29	NF_016	1	0	0		0	0	3315.35526	3315.455242	0.0999813
30632.75	0.0999943	448	stimuli/non_foods\stim052_animate_insect_butterfly_4.png	1	3	1	butterfly_4	0	47		NaN	0	0		0	0	3315.505248	3315.605242	0.0999943
30670.25	0.0999976	449	stimuli/non_foods\stim152_inanimate_tools_pan_4.png	1	3	1	pan_4	0	208		NaN	0	0		0	0	3315.655246	3315.755243	0.0999976
30707.75	0.0999867	450	stimuli/foods\roasted_chicken.jpg	1	3	1	roasted_chicken	1	253	TF_109	0	0	0		0	0	3315.805253	3315.90524	0.0999867
30745.25	0.1000016	451	stimuli/non_foods\stim069_animate_mammal_kangaroo_1.png	1	3	1	kangaroo_1	0	168		NaN	0	0		0	0	3315.955237	3316.055239	0.1000016
30782.75	0.0999894	452	stimuli/non_foods\stim035_animate_human_faces_3.png	1	3	1	faces_3	0	119		NaN	0	0		0	0	3316.105247	3316.205237	0.0999894
30820.25	0.0999963	453	stimuli/non_foods\stim056_animate_insect_dragonfly_4.png	1	3	1	dragonfly_4	0	109		NaN	0	0		0	0	3316.255238	3316.355234	0.0999963
30857.75	0.1000077	454	stimuli/foods\linguine_with_clams.jpg	1	3	1	linguine_with_clams	1	181	TF_077	0	0	0		0	0	3316.405243	3316.505251	0.1000077
30895.25	0.0999907	455	stimuli/non_foods\stim084_inanimate_clothing_gloves_4.png	1	3	1	gloves_4	0	139		NaN	0	0		0	0	3316.555241	3316.655231	0.0999907
30932.75	0.0999991	456	stimuli/non_foods\stim041_animate_insect_ant_1.png	1	3	1	ant_1	0	1		NaN	0	0		0	0	3316.705233	3316.805232	0.0999991
30970.25	0.0999882	457	stimuli/foods\pineapple.jpg	1	3	1	pineapple	1	231	NF_004	1	0	0		0	0	3316.855243	3316.955231	0.0999882
31007.75	0.0999963	458	stimuli/non_foods\stim043_animate_insect_ant_3.png	1	3	1	ant_3	0	3		NaN	0	0		0	0	3317.005232	3317.105229	0.0999963
31045.25	0.0999872	459	stimuli/foods\pear.jpg	1	3	1	pear	1	223	NF_077	1	0	0		0	0	3317.155239	3317.255226	0.0999872
31082.75	0.0999887	460	stimuli/non_foods\stim121_inanimate_plants_bush_1.png	1	3	1	bush_1	0	40		NaN	0	0		0	0	3317.305236	3317.405224	0.0999887
31120.25	0.1000019	461	stimuli/non_foods\stim144_inanimate_tools_broom_4.png	1	3	1	broom_4	0	33		NaN	0	0		0	0	3317.455227	3317.555229	0.1000019
31157.75	0.0999979	462	stimuli/non_foods\stim003_animate_bird_chicken_3.png	1	3	1	chicken_3	0	68		NaN	0	0		0	0	3317.605227	3317.705225	0.0999979
31195.25	0.0999841	463	stimuli/foods\fried_calamari.jpg	1	3	1	fried_calamari	1	124	TF_020	0	0	0		0	0	3317.755235	3317.855219	0.0999841
31232.75	0.0999981	464	stimuli/non_foods\stim153_inanimate_tools_scissors_1.png	1	3	1	scissors_1	0	258		NaN	0	0		0	0	3317.905221	3318.00522	0.0999981
31270.25	0.0999914	465	stimuli/non_foods\stim030_animate_human_clown_2.png	1	3	1	clown_2	0	86		NaN	0	0		0	0	3318.055225	3318.155216	0.0999914
31307.75	0.099986	466	stimuli/foods\cupcake.jpg	1	3	1	cupcake	1	102	TF_050	0	0	0		0	0	3318.205231	3318.305217	0.099986
31345.25	0.0999587	467	stimuli/foods\grilled_chicken_breast.jpg	1	3	1	grilled_chicken_breast	1	149	TF_104	0	0	0		0	0	3318.355254	3318.455213	0.0999587
31382.75	0.0999933	468	stimuli/non_foods\stim106_inanimate_furniture_chair_2.png	1	3	1	chair_2	0	61		NaN	0	0		0	0	3318.505223	3318.605216	0.0999933
31420.25	0.0999885	469	stimuli/non_foods\stim127_inanimate_plants_cactus_3.png	1	3	1	cactus_3	0	51		NaN	0	0		0	0	3318.655226	3318.755215	0.0999885
31457.75	0.0999858	470	stimuli/foods\lollies.jpg	1	3	1	lollies	1	183	TF_026	0	0	0		0	0	3318.805226	3318.905212	0.0999858
32170.25	0.0999926	471	stimuli/non_foods\stim070_animate_mammal_kangaroo_2.png	1	4	1	kangaroo_2	0	169		NaN	0	0		0	0	3321.655196	3321.755189	0.0999926
32207.75	0.0999968	472	stimuli/non_foods\stim015_animate_bird_peacock_3.png	1	4	1	peacock_3	0	221		NaN	0	0		0	0	3321.805187	3321.905184	0.0999968
32245.25	0.0999889	473	stimuli/non_foods\stim125_inanimate_plants_cactus_1.png	1	4	1	cactus_1	0	49		NaN	0	0		0	0	3321.955193	3322.055182	0.0999889
32282.75	0.100001	474	stimuli/non_foods\stim016_animate_bird_peacock_4.png	1	4	1	peacock_4	0	222		NaN	0	0		0	0	3322.105187	3322.205188	0.100001
32320.25	0.0999739	475	stimuli/non_foods\stim044_animate_insect_ant_4.png	1	4	1	ant_4	0	4		NaN	0	0		0	0	3322.255207	3322.355181	0.0999739
32357.75	0.0999939	476	stimuli/non_foods\stim026_animate_human_child_2.png	1	4	1	child_2	0	71		NaN	0	0		0	0	3322.405187	3322.505181	0.0999939
32395.25	0.0999982	477	stimuli/non_foods\stim142_inanimate_tools_broom_2.png	1	4	1	broom_2	0	31		NaN	0	0		0	0	3322.555182	3322.65518	0.0999982
32432.75	0.0999869	478	stimuli/foods\red_cabbage.jpg	1	4	1	red_cabbage	1	245	NF_023	1	0	0		0	0	3322.705189	3322.805176	0.0999869
32470.25	0.0999994	479	stimuli/non_foods\stim055_animate_insect_dragonfly_3.png	1	4	1	dragonfly_3	0	108		NaN	0	0		0	0	3322.855178	3322.955177	0.0999994
32507.75	0.0999868	480	stimuli/foods\lettuce.jpg	1	4	1	lettuce	1	178	NF_046	1	0	0		0	0	3323.005186	3323.105173	0.0999868
32545.25	0.0999907	481	stimuli/foods\frankfurters.jpg	1	4	1	frankfurters	1	123	TF_156	0	0	0		0	0	3323.155184	3323.255174	0.0999907
32582.75	0.100004	482	stimuli/foods\watermelon.jpg	1	4	1	watermelon	1	309	NF_005	1	0	0		0	0	3323.305185	3323.405189	0.100004
32620.25	0.0999885	483	stimuli/foods\wafer.jpg	1	4	1	wafer	1	307	TF_155	0	0	0		0	0	3323.455183	3323.555171	0.0999885
32657.75	0.0999961	484	stimuli/non_foods\stim099_inanimate_clothing_socks_3.png	1	4	1	socks_3	0	269		NaN	0	0		0	0	3323.605175	3323.705171	0.0999961
32695.25	0.0999892	485	stimuli/foods\licorice.jpg	1	4	1	licorice	1	179	TF_078	0	0	0		0	0	3323.755178	3323.855167	0.0999892
32732.75	0.0999952	486	stimuli/foods\peas.jpg	1	4	1	peas	1	224	NF_081	1	0	0		0	0	3323.905175	3324.00517	0.0999952
32770.25	0.0999743	487	stimuli/non_foods\stim135_inanimate_plants_tree_3.png	1	4	1	tree_3	0	301		NaN	0	0		0	0	3324.055192	3324.155167	0.0999743
32807.75	0.0999877	488	stimuli/foods\smoked_ham.jpg	1	4	1	smoked_ham	1	266	TF_118	0	0	0		0	0	3324.205175	3324.305163	0.0999877
32845.25	0.0999953	489	stimuli/non_foods\stim062_animate_mammal_cow_2.png	1	4	1	cow_2	0	95		NaN	0	0		0	0	3324.355167	3324.455162	0.0999953
32882.75	0.0999882	490	stimuli/foods\capsicum.jpg	1	4	1	capsicum	1	55	NF_076	1	0	0		0	0	3324.505174	3324.605162	0.0999882
32920.25	0.0999889	491	stimuli/foods\hamburger.jpg	1	4	1	hamburger	1	150	TF_069	0	0	0		0	0	3324.655171	3324.75516	0.0999889
32957.75	0.0999866	492	stimuli/foods\rockmelon.jpg	1	4	1	rockmelon	1	254	NF_060	1	0	0		0	0	3324.805171	3324.905157	0.0999866
32995.25	0.0999906	493	stimuli/foods\mussels.jpg	1	4	1	mussels	1	195	TF_042	0	0	0		0	0	3324.955165	3325.055156	0.0999906
33032.75	0.1000117	494	stimuli/non_foods\stim022_animate_human_baby_2.png	1	4	1	baby_2	0	11		NaN	0	0		0	0	3325.10516	3325.205172	0.1000117
33070.25	0.0999901	495	stimuli/non_foods\stim064_animate_mammal_cow_4.png	1	4	1	cow_4	0	97		NaN	0	0		0	0	3325.255162	3325.355152	0.0999901
33107.75	0.0999973	496	stimuli/foods\oven-roasted_tomatoes.jpg	1	4	1	oven-roasted_tomatoes	1	203	TF_114	0	0	0		0	0	3325.40516	3325.505158	0.0999973
33145.25	0.0999874	497	stimuli/foods\chocolate_bar.jpg	1	4	1	chocolate_bar	1	75	TF_033	0	0	0		0	0	3325.555165	3325.655153	0.0999874
33182.75	0.1000076	498	stimuli/non_foods\stim147_inanimate_tools_hammer_3.png	1	4	1	hammer_3	0	153		NaN	0	0		0	0	3325.705152	3325.80516	0.1000076
33220.25	0.0999775	499	stimuli/foods\artichoke.jpg	1	4	1	artichoke	1	7	NF_018	1	0	0		0	0	3325.855179	3325.955156	0.0999775
33257.75	0.0999912	500	stimuli/foods\swordfish.jpg	1	4	1	swordfish	1	290	TF_101	0	0	0		0	0	3326.005159	3326.10515	0.0999912
33295.25	0.0999942	501	stimuli/non_foods\stim150_inanimate_tools_pan_2.png	1	4	1	pan_2	0	206		NaN	0	0		0	0	3326.155153	3326.255147	0.0999942
33332.75	0.0999951	502	stimuli/non_foods\stim066_animate_mammal_giraffe_2.png	1	4	1	giraffe_2	0	133		NaN	0	0		0	0	3326.305148	3326.405143	0.0999951
33370.25	0.0999948	503	stimuli/non_foods\stim004_animate_bird_chicken_4.png	1	4	1	chicken_4	0	69		NaN	0	0		0	0	3326.455149	3326.555144	0.0999948
33407.75	0.0999951	504	stimuli/non_foods\stim075_animate_mammal_monkey_3.png	1	4	1	monkey_3	0	190		NaN	0	0		0	0	3326.605147	3326.705142	0.0999951
33445.25	0.0999891	505	stimuli/foods\bread.jpg	1	4	1	bread	1	26	TF_089	0	0	0		0	0	3326.755151	3326.85514	0.0999891
33482.75	0.1000145	506	stimuli/non_foods\stim092_inanimate_clothing_jeans_4.png	1	4	1	jeans_4	0	167		NaN	0	0		0	0	3326.905146	3327.00516	0.1000145
33520.25	0.0999936	507	stimuli/non_foods\stim104_inanimate_furniture_bed_4.png	1	4	1	bed_4	0	22		NaN	0	0		0	0	3327.055143	3327.155136	0.0999936
33557.75	0.0999924	508	stimuli/non_foods\stim101_inanimate_furniture_bed_1.png	1	4	1	bed_1	0	19		NaN	0	0		0	0	3327.205142	3327.305134	0.0999924
33595.25	0.099998	509	stimuli/non_foods\stim053_animate_insect_dragonfly_1.png	1	4	1	dragonfly_1	0	106		NaN	0	0		0	0	3327.355137	3327.455135	0.099998
33632.75	0.1000095	510	stimuli/foods\green_olives.jpg	1	4	1	green_olives	1	148	TF_085	0	0	0		0	0	3327.505146	3327.605155	0.1000095
33670.25	0.0999613	511	stimuli/foods\lentils.jpg	1	4	1	lentils	1	177	NF_047	1	0	0		0	0	3327.655169	3327.755131	0.0999613
33707.75	0.0999972	512	stimuli/foods\cracker.jpg	1	4	1	cracker	1	98	TF_043	0	0	0		0	0	3327.805133	3327.90513	0.0999972
33745.25	0.0999963	513	stimuli/non_foods\stim134_inanimate_plants_tree_2.png	1	4	1	tree_2	0	300		NaN	0	0		0	0	3327.955135	3328.055132	0.0999963
33782.75	0.099987	514	stimuli/foods\cucumber.jpg	1	4	1	cucumber	1	101	NF_026	1	0	0		0	0	3328.105139	3328.205126	0.099987
33820.25	0.0999964	515	stimuli/non_foods\stim049_animate_insect_butterfly_1.png	1	4	1	butterfly_1	0	44		NaN	0	0		0	0	3328.255132	3328.355128	0.0999964
33857.75	0.0999902	516	stimuli/non_foods\stim107_inanimate_furniture_chair_3.png	1	4	1	chair_3	0	62		NaN	0	0		0	0	3328.405138	3328.505128	0.0999902
33895.25	0.0999948	517	stimuli/non_foods\stim098_inanimate_clothing_socks_2.png	1	4	1	socks_2	0	268		NaN	0	0		0	0	3328.555128	3328.655123	0.0999948
33932.75	0.0999739	518	stimuli/foods\waffle.jpg	1	4	1	waffle	1	308	TF_030	0	0	0		0	0	3328.705146	3328.80512	0.0999739
33970.25	0.099994	519	stimuli/non_foods\stim040_animate_human_sports_4.png	1	4	1	sports_4	0	281		NaN	0	0		0	0	3328.855127	3328.955121	0.099994
34007.75	0.0999919	520	stimuli/foods\egg.jpg	1	4	1	egg	1	115	NF_095	1	0	0		0	0	3329.005131	3329.105123	0.0999919
34045.25	0.0999925	521	stimuli/non_foods\stim129_inanimate_plants_sunflower_1.png	1	4	1	sunflower_1	0	286		NaN	0	0		0	0	3329.155129	3329.255122	0.0999925
34082.75	0.1000035	522	stimuli/foods\pomegranate.jpg	1	4	1	pomegranate	1	232	NF_058	1	0	0		0	0	3329.305133	3329.405137	0.1000035
34120.25	0.0999779	523	stimuli/foods\salmon.jpg	1	4	1	salmon	1	256	TF_130	0	0	0		0	0	3329.455142	3329.55512	0.0999779
34157.75	0.0999885	524	stimuli/foods\coffee_beans.jpg	1	4	1	coffee_beans	1	90	TF_029	0	1	0		0	0	3329.605125	3329.705114	0.0999885
34195.25	0.0999925	525	stimuli/non_foods\stim140_inanimate_plants_tulip_4.png	1	4	1	tulip_4	0	306		NaN	0	0		0	0	3329.755118	3329.855111	0.0999925
34232.75	0.0999892	526	stimuli/foods\lasagna.jpg	1	4	1	lasagna	1	174	TF_076	0	0	0		0	0	3329.905125	3330.005114	0.0999892
34270.25	0.0999926	527	stimuli/non_foods\stim061_animate_mammal_cow_1.png	1	4	1	cow_1	0	94		NaN	0	1	f	0.4422975	1	3330.055118	3330.155111	0.0999926
34307.75	0.0999994	528	stimuli/non_foods\stim136_inanimate_plants_tree_4.png	1	4	1	tree_4	0	302		NaN	0	0		0	0	3330.205116	3330.305115	0.0999994
34345.25	0.099988	529	stimuli/foods\pork_loin_with_peas.jpg	1	4	1	pork_loin_with_peas	1	234	TF_003	0	0	0		0	0	3330.35512	3330.455108	0.099988
34382.75	0.0999896	530	stimuli/foods\oyster.jpg	1	4	1	oyster	1	204	NF_067	1	0	0		0	0	3330.505117	3330.605107	0.0999896
34420.25	0.0999917	531	stimuli/foods\strawberry.jpg	1	4	1	strawberry	1	285	NF_037	1	0	0		0	0	3330.655115	3330.755107	0.0999917
34457.75	0.0999895	532	stimuli/foods\pepperoni_pizza.jpg	1	4	1	pepperoni_pizza	1	229	TF_106	0	0	0		0	0	3330.805114	3330.905104	0.0999895
34495.25	0.0999887	533	stimuli/non_foods\stim120_inanimate_furniture_table_4.png	1	4	1	table_4	0	294		NaN	0	0		0	0	3330.955108	3331.055097	0.0999887
34532.75	0.1000161	534	stimuli/non_foods\stim065_animate_mammal_giraffe_1.png	1	4	1	giraffe_1	0	132		NaN	0	0		0	0	3331.105111	3331.205127	0.1000161
34570.25	0.099996	535	stimuli/non_foods\stim038_animate_human_sports_2.png	1	4	1	sports_2	0	279		NaN	0	0		0	0	3331.255104	3331.3551	0.099996
34607.75	0.0999949	536	stimuli/foods\salami.jpg	1	4	1	salami	1	255	TF_127	0	0	0		0	0	3331.405108	3331.505103	0.0999949
34645.25	0.0999889	537	stimuli/foods\mandarin.jpg	1	4	1	mandarin	1	184	NF_052	1	0	0		0	0	3331.555107	3331.655096	0.0999889
34682.75	0.1000069	538	stimuli/non_foods\stim036_animate_human_faces_4.png	1	4	1	faces_4	0	120		NaN	0	0		0	0	3331.70509	3331.805097	0.1000069
34720.25	0.0999911	539	stimuli/foods\avocado.jpg	1	4	1	avocado	1	9	NF_012	1	0	0		0	0	3331.855104	3331.955095	0.0999911
34757.75	0.0999877	540	stimuli/foods\potatoes.jpg	1	4	1	potatoes	1	237	NF_071	1	0	0		0	0	3332.005104	3332.105092	0.0999877
34795.25	0.1000006	541	stimuli/foods\lemon_meringue_pie.jpg	1	4	1	lemon_meringue_pie	1	176	TF_151	0	0	0		0	0	3332.155103	3332.255103	0.1000006
34832.75	0.0999954	542	stimuli/non_foods\stim063_animate_mammal_cow_3.png	1	4	1	cow_3	0	96		NaN	0	0		0	0	3332.305097	3332.405093	0.0999954
34870.25	0.0999987	543	stimuli/non_foods\stim027_animate_human_child_3.png	1	4	1	child_3	0	72		NaN	0	0		0	0	3332.455094	3332.555092	0.0999987
34907.75	0.0999918	544	stimuli/foods\celery.jpg	1	4	1	celery	1	58	NF_092	1	0	0		0	0	3332.605098	3332.70509	0.0999918
34945.25	0.0999925	545	stimuli/foods\radish.jpg	1	4	1	radish	1	240	NF_090	1	0	0		0	0	3332.755098	3332.855091	0.0999925
34982.75	0.0999828	546	stimuli/non_foods\stim076_animate_mammal_monkey_4.png	1	4	1	monkey_4	0	191		NaN	0	0		0	0	3332.905115	3333.005098	0.0999828
35020.25	0.0999793	547	stimuli/foods\spaghetti_with_meat_sauce.jpg	1	4	1	spaghetti_with_meat_sauce	1	275	TF_137	0	0	0		0	0	3333.055106	3333.155086	0.0999793
35057.75	0.0999884	548	stimuli/non_foods\stim095_inanimate_clothing_shirt_3.png	1	4	1	shirt_3	0	264		NaN	0	0		0	0	3333.205088	3333.305077	0.0999884
35095.25	0.0999849	549	stimuli/foods\brie.jpg	1	4	1	brie	1	28	TF_016	0	0	0		0	0	3333.355087	3333.455072	0.0999849
35132.75	0.0999856	550	stimuli/foods\garlic.jpg	1	4	1	garlic	1	130	NF_001	1	0	0		0	0	3333.505096	3333.605081	0.0999856
35170.25	0.0999896	551	stimuli/foods\prawn.jpg	1	4	1	prawn	1	238	NF_041	1	0	0		0	0	3333.65509	3333.75508	0.0999896
35207.75	0.0999902	552	stimuli/foods\cinnamon_sroll.jpg	1	4	1	cinnamon_sroll	1	80	TF_021	0	0	0		0	0	3333.805088	3333.905078	0.0999902
35245.25	0.1000034	553	stimuli/foods\mushroom.jpg	1	4	1	mushroom	1	194	NF_039	1	0	0		0	0	3333.955089	3334.055092	0.1000034
35282.75	0.099995	554	stimuli/non_foods\stim138_inanimate_plants_tulip_2.png	1	4	1	tulip_2	0	304		NaN	0	0		0	0	3334.105079	3334.205074	0.099995
35320.25	0.0999889	555	stimuli/foods\apple.jpg	1	4	1	apple	1	5	NF_055	1	0	0		0	0	3334.255086	3334.355075	0.0999889
35357.75	0.0999918	556	stimuli/foods\donut.jpg	1	4	1	donut	1	105	TF_032	0	0	0		0	0	3334.405081	3334.505073	0.0999918
35395.25	0.1000012	557	stimuli/non_foods\stim124_inanimate_plants_bush_4.png	1	4	1	bush_4	0	43		NaN	0	0		0	0	3334.555073	3334.655075	0.1000012
35432.75	0.0999614	558	stimuli/foods\brussel_sprouts.jpg	1	4	1	brussel_sprouts	1	35	NF_021	1	0	0		0	0	3334.705108	3334.805069	0.0999614
35470.25	0.0999952	559	stimuli/non_foods\stim001_animate_bird_chicken_1.png	1	4	1	chicken_1	0	66		NaN	0	0		0	0	3334.855073	3334.955068	0.0999952
35507.75	0.0999931	560	stimuli/non_foods\stim081_inanimate_clothing_gloves_1.png	1	4	1	gloves_1	0	136		NaN	0	0		0	0	3335.005073	3335.105066	0.0999931
35545.25	0.0999969	561	stimuli/non_foods\stim087_inanimate_clothing_hat_3.png	1	4	1	hat_3	0	157		NaN	0	0		0	0	3335.155069	3335.255066	0.0999969
35582.75	0.0999975	562	stimuli/non_foods\stim117_inanimate_furniture_table_1.png	1	4	1	table_1	0	291		NaN	0	0		0	0	3335.305068	3335.405066	0.0999975
35620.25	0.0999877	563	stimuli/foods\octopus.jpg	1	4	1	octopus	1	198	TF_113	0	0	0		0	0	3335.455075	3335.555063	0.0999877
35657.75	0.099992	564	stimuli/foods\chocolate_chip_cookies.jpg	1	4	1	chocolate_chip_cookies	1	76	TF_010	0	0	0		0	0	3335.605071	3335.705063	0.099992
35695.25	0.1000065	565	stimuli/non_foods\stim113_inanimate_furniture_sofa_1.png	1	4	1	sofa_1	0	271		NaN	0	0		0	0	3335.755065	3335.855071	0.1000065
35732.75	0.0999848	566	stimuli/foods\coconut.jpg	1	4	1	coconut	1	89	NF_030	1	0	0		0	0	3335.905073	3336.005057	0.0999848
35770.25	0.0999925	567	stimuli/foods\chestnut.jpg	1	4	1	chestnut	1	65	NF_020	1	0	0		0	0	3336.055066	3336.155058	0.0999925
35807.75	0.0999877	568	stimuli/foods\chocolate_pralines.jpg	1	4	1	chocolate_pralines	1	77	TF_035	0	0	0		0	0	3336.205069	3336.305057	0.0999877
35845.25	0.1000016	569	stimuli/foods\fennel.jpg	1	4	1	fennel	1	121	NF_036	1	0	0		0	0	3336.355065	3336.455067	0.1000016
35882.75	0.0999719	570	stimuli/foods\steak.jpg	1	4	1	steak	1	283	TF_013	0	0	0		0	0	3336.505083	3336.605055	0.0999719
35920.25	0.099985	571	stimuli/foods\blue_cheese.jpg	1	4	1	blue_cheese	1	25	TF_066	0	0	0		0	0	3336.655065	3336.75505	0.099985
35957.75	0.0999883	572	stimuli/foods\museli_bars.jpg	1	4	1	museli_bars	1	193	TF_008	0	0	0		0	0	3336.805062	3336.90505	0.0999883
35995.25	0.0999958	573	stimuli/non_foods\stim046_animate_insect_bug_2.png	1	4	1	bug_2	0	37		NaN	0	0		0	0	3336.955055	3337.055051	0.0999958
36032.75	0.0999935	574	stimuli/non_foods\stim068_animate_mammal_giraffe_4.png	1	4	1	giraffe_4	0	135		NaN	0	0		0	0	3337.105053	3337.205047	0.0999935
36070.25	0.0999925	575	stimuli/foods\figs.jpg	1	4	1	figs	1	122	NF_035	1	0	0		0	0	3337.255055	3337.355047	0.0999925
36107.75	0.0999976	576	stimuli/non_foods\stim042_animate_insect_ant_2.png	1	4	1	ant_2	0	2		NaN	0	0		0	0	3337.40505	3337.505047	0.0999976
36145.25	0.0999959	577	stimuli/foods\pea_pod.jpg	1	4	1	pea_pod	1	217	NF_082	1	0	0		0	0	3337.555053	3337.655049	0.0999959
36182.75	0.099989	578	stimuli/foods\lamb_chops.jpg	1	4	1	lamb_chops	1	173	TF_040	0	0	0		0	0	3337.705055	3337.805044	0.099989
36220.25	0.0999908	579	stimuli/non_foods\stim132_inanimate_plants_sunflower_4.png	1	4	1	sunflower_4	0	289		NaN	0	0		0	0	3337.855051	3337.955042	0.0999908
36257.75	0.0999891	580	stimuli/foods\ice_cream_sandwich.jpg	1	4	1	ice_cream_sandwich	1	163	TF_061	0	0	0		0	0	3338.00505	3338.105039	0.0999891
36295.25	0.1000119	581	stimuli/foods\grapes.jpg	1	4	1	grapes	1	142	NF_098	1	0	0		0	0	3338.155052	3338.255064	0.1000119
36332.75	0.0999626	582	stimuli/foods\nougat.jpg	1	4	1	nougat	1	197	TF_144	0	0	0		0	0	3338.305073	3338.405036	0.0999626
36370.25	0.1000023	583	stimuli/non_foods\stim006_animate_bird_duck_2.png	1	4	1	duck_2	0	112		NaN	0	0		0	0	3338.455039	3338.555041	0.1000023
36407.75	0.0999869	584	stimuli/foods\meatballs.jpg	1	4	1	meatballs	1	186	TF_112	0	0	0		0	0	3338.605048	3338.705035	0.0999869
36445.25	0.0999903	585	stimuli/foods\mortadella.jpg	1	4	1	mortadella	1	192	TF_083	0	0	0		0	0	3338.755043	3338.855033	0.0999903
36482.75	0.0999915	586	stimuli/foods\cereal.jpg	1	4	1	cereal	1	59	TF_028	0	0	0		0	0	3338.905041	3339.005033	0.0999915
36520.25	0.0999951	587	stimuli/non_foods\stim160_inanimate_tools_wrench_4.png	1	4	1	wrench_4	0	313		NaN	0	0		0	0	3339.055034	3339.155029	0.0999951
36557.75	0.0999906	588	stimuli/foods\honey.jpg	1	4	1	honey	1	160	NF_062	1	0	0		0	0	3339.20504	3339.30503	0.0999906
36595.25	0.0999651	589	stimuli/foods\asparagus.jpg	1	4	1	asparagus	1	8	NF_010	1	0	0		0	0	3339.355064	3339.455029	0.0999651
36632.75	0.0999918	590	stimuli/non_foods\stim050_animate_insect_butterfly_2.png	1	4	1	butterfly_2	0	45		NaN	0	0		0	0	3339.505032	3339.605024	0.0999918
36670.25	0.0999927	591	stimuli/non_foods\stim086_inanimate_clothing_hat_2.png	1	4	1	hat_2	0	156		NaN	0	0		0	0	3339.655033	3339.755025	0.0999927
36707.75	0.0999862	592	stimuli/foods\minestrone_soup.jpg	1	4	1	minestrone_soup	1	187	TF_160	0	0	0		0	0	3339.805036	3339.905022	0.0999862
36745.25	0.1000043	593	stimuli/foods\kiwi.jpg	1	4	1	kiwi	1	172	NF_044	1	0	0		0	0	3339.955036	3340.05504	0.1000043
36782.75	0.0999712	594	stimuli/foods\hotdog.jpg	1	4	1	hotdog	1	161	TF_070	0	0	0		0	0	3340.105051	3340.205022	0.0999712
36820.25	0.0999909	595	stimuli/foods\lobster.jpg	1	4	1	lobster	1	182	NF_007	1	0	0		0	0	3340.25503	3340.355021	0.0999909
36857.75	0.0999953	596	stimuli/non_foods\stim096_inanimate_clothing_shirt_4.png	1	4	1	shirt_4	0	265		NaN	0	0		0	0	3340.405025	3340.50502	0.0999953
36895.25	0.0999858	597	stimuli/foods\potato_chips.jpg	1	4	1	potato_chips	1	236	TF_097	0	0	0		0	0	3340.55503	3340.655016	0.0999858
36932.75	0.0999885	598	stimuli/foods\mango.jpg	1	4	1	mango	1	185	NF_054	1	0	0		0	0	3340.705025	3340.805014	0.0999885
36970.25	0.0999896	599	stimuli/foods\carrot.jpg	1	4	1	carrot	1	56	NF_019	1	0	0		0	0	3340.855028	3340.955018	0.0999896
37007.75	0.0999883	600	stimuli/non_foods\stim133_inanimate_plants_tree_1.png	1	4	1	tree_1	0	299		NaN	0	0		0	0	3341.005022	3341.10501	0.0999883
37045.25	0.0999812	601	stimuli/non_foods\stim126_inanimate_plants_cactus_2.png	1	4	1	cactus_2	0	50		NaN	0	0		0	0	3341.15503	3341.255011	0.0999812
37082.75	0.0999897	602	stimuli/foods\toast.jpg	1	4	1	toast	1	296	TF_053	0	1	0		0	0	3341.305023	3341.405013	0.0999897
37120.25	0.0999982	603	stimuli/non_foods\stim139_inanimate_plants_tulip_3.png	1	4	1	tulip_3	0	305		NaN	0	0		0	0	3341.455012	3341.55501	0.0999982
37157.75	0.099997	604	stimuli/non_foods\stim083_inanimate_clothing_gloves_3.png	1	4	1	gloves_3	0	138		NaN	0	0		0	0	3341.605015	3341.705012	0.099997
37195.25	0.1000154	605	stimuli/non_foods\stim094_inanimate_clothing_shirt_2.png	1	4	1	shirt_2	0	263		NaN	0	1	f	0.4422935	1	3341.755019	3341.855034	0.1000154
37232.75	0.0999855	606	stimuli/foods\savory_pie.jpg	1	4	1	savory_pie	1	257	TF_146	0	0	0		0	0	3341.905018	3342.005003	0.0999855
37270.25	0.0999937	607	stimuli/non_foods\stim067_animate_mammal_giraffe_3.png	1	4	1	giraffe_3	0	134		NaN	0	0		0	0	3342.05501	3342.155004	0.0999937
37307.75	0.0999922	608	stimuli/foods\cinnamon.jpg	1	4	1	cinnamon	1	79	NF_017	1	0	0		0	0	3342.205011	3342.305004	0.0999922
37345.25	0.0999988	609	stimuli/non_foods\stim157_inanimate_tools_wrench_1.png	1	4	1	wrench_1	0	310		NaN	0	0		0	0	3342.355006	3342.455005	0.0999988
37382.75	0.0999862	610	stimuli/foods\apricot.jpg	1	4	1	apricot	1	6	NF_002	1	0	0		0	0	3342.505014	3342.605	0.0999862
37420.25	0.099987	611	stimuli/foods\ginger_root.jpg	1	4	1	ginger_root	1	131	NF_088	1	0	0		0	0	3342.655009	3342.754996	0.099987
37457.75	0.0999899	612	stimuli/foods\fries.jpg	1	4	1	fries	1	126	TF_094	0	0	0		0	0	3342.805008	3342.904998	0.0999899
37495.25	0.0999962	613	stimuli/non_foods\stim116_inanimate_furniture_sofa_4.png	1	4	1	sofa_4	0	274		NaN	0	0		0	0	3342.954997	3343.054994	0.0999962
37532.75	0.0999978	614	stimuli/non_foods\stim151_inanimate_tools_pan_3.png	1	4	1	pan_3	0	207		NaN	0	0		0	0	3343.105	3343.204998	0.0999978
37570.25	0.0999855	615	stimuli/foods\oregano.jpg	1	4	1	oregano	1	202	NF_066	1	0	0		0	0	3343.255006	3343.354992	0.0999855
37607.75	0.0999927	616	stimuli/foods\pork_and_rice.jpg	1	4	1	pork_and_rice	1	233	TF_080	0	0	0		0	0	3343.405003	3343.504995	0.0999927
37645.25	0.0999849	617	stimuli/non_foods\stim100_inanimate_clothing_socks_4.png	1	4	1	socks_4	0	270		NaN	0	0		0	0	3343.55502	3343.655005	0.0999849
37682.75	0.0999877	618	stimuli/foods\cooked_prawn.jpg	1	4	1	cooked_prawn	1	92	TF_060	0	0	0		0	0	3343.705001	3343.804989	0.0999877
37720.25	0.1000048	619	stimuli/non_foods\stim058_animate_insect_grasshopper_2.png	1	4	1	grasshopper_2	0	144		NaN	0	0		0	0	3343.854992	3343.954997	0.1000048
37757.75	0.099987	620	stimuli/foods\red_beans.jpg	1	4	1	red_beans	1	244	NF_033	1	0	0		0	0	3344.005001	3344.104988	0.099987
37795.25	0.1000122	621	stimuli/non_foods\stim060_animate_insect_grasshopper_4.png	1	4	1	grasshopper_4	0	146		NaN	0	0		0	0	3344.154987	3344.255	0.1000122
37832.75	0.0999782	622	stimuli/foods\green_beans.jpg	1	4	1	green_beans	1	147	NF_034	1	0	0		0	0	3344.305006	3344.404984	0.0999782
37870.25	0.0999892	623	stimuli/foods\brownie.jpg	1	4	1	brownie	1	34	TF_011	0	0	0		0	0	3344.454994	3344.554984	0.0999892
37907.75	0.1000048	624	stimuli/foods\stew_with_potatoes_and_carrots.jpg	1	4	1	stew_with_potatoes_and_carrots	1	284	TF_139	0	0	0		0	0	3344.604991	3344.704996	0.1000048
37945.25	0.0999969	625	stimuli/non_foods\stim131_inanimate_plants_sunflower_3.png	1	4	1	sunflower_3	0	288		NaN	0	0		0	0	3344.754985	3344.854981	0.0999969
37982.75	0.0999932	626	stimuli/non_foods\stim047_animate_insect_bug_3.png	1	4	1	bug_3	0	38		NaN	0	0		0	0	3344.904983	3345.004976	0.0999932
38020.25	0.1000002	627	stimuli/non_foods\stim159_inanimate_tools_wrench_3.png	1	4	1	wrench_3	0	312		NaN	0	0		0	0	3345.054979	3345.154979	0.1000002
38707.75	0.0999837	628	stimuli/foods\green_beans.jpg	1	5	1	green_beans	1	147	NF_034	1	0	0		0	0	3347.804972	3347.904956	0.0999837
38745.25	0.0999977	629	stimuli/non_foods\stim065_animate_mammal_giraffe_1.png	1	5	1	giraffe_1	0	132		NaN	0	0		0	0	3347.954954	3348.054952	0.0999977
38782.75	0.0999864	630	stimuli/foods\cooked_ham.jpg	1	5	1	cooked_ham	1	91	TF_116	0	0	0		0	0	3348.104964	3348.204951	0.0999864
38820.25	0.1000214	631	stimuli/foods\lemon.jpg	1	5	1	lemon	1	175	NF_049	1	0	0		0	0	3348.25496	3348.354982	0.1000214
38857.75	0.0999739	632	stimuli/foods\grilled_chicken_breast.jpg	1	5	1	grilled_chicken_breast	1	149	TF_104	0	0	0		0	0	3348.404973	3348.504947	0.0999739
38895.25	0.0999947	633	stimuli/non_foods\stim070_animate_mammal_kangaroo_2.png	1	5	1	kangaroo_2	0	169		NaN	0	0		0	0	3348.554952	3348.654946	0.0999947
38932.75	0.0999943	634	stimuli/non_foods\stim153_inanimate_tools_scissors_1.png	1	5	1	scissors_1	0	258		NaN	0	0		0	0	3348.70495	3348.804944	0.0999943
38970.25	0.0999898	635	stimuli/non_foods\stim129_inanimate_plants_sunflower_1.png	1	5	1	sunflower_1	0	286		NaN	0	0		0	0	3348.854954	3348.954944	0.0999898
39007.75	0.0999917	636	stimuli/foods\eggplant.jpg	1	5	1	eggplant	1	116	NF_059	1	0	0		0	0	3349.004952	3349.104944	0.0999917
39045.25	0.0999892	637	stimuli/foods\bagel.jpg	1	5	1	bagel	1	14	TF_005	0	0	0		0	0	3349.154951	3349.25494	0.0999892
39082.75	0.099988	638	stimuli/foods\carrot.jpg	1	5	1	carrot	1	56	NF_019	1	0	0		0	0	3349.304953	3349.404941	0.099988
39120.25	0.0999696	639	stimuli/foods\apple.jpg	1	5	1	apple	1	5	NF_055	1	0	0		0	0	3349.454971	3349.554941	0.0999696
39157.75	0.099996	640	stimuli/non_foods\stim031_animate_human_clown_3.png	1	5	1	clown_3	0	87		NaN	0	0		0	0	3349.604945	3349.704941	0.099996
39195.25	0.0999823	641	stimuli/foods\beetroots.jpg	1	5	1	beetroots	1	23	NF_015	1	0	0		0	0	3349.754951	3349.854933	0.0999823
39232.75	0.0999904	642	stimuli/foods\oregano.jpg	1	5	1	oregano	1	202	NF_066	1	0	0		0	0	3349.904944	3350.004935	0.0999904
39270.25	0.1000027	643	stimuli/non_foods\stim064_animate_mammal_cow_4.png	1	5	1	cow_4	0	97		NaN	0	0		0	0	3350.054943	3350.154945	0.1000027
39307.75	0.099971	644	stimuli/foods\lasagna.jpg	1	5	1	lasagna	1	174	TF_076	0	0	0		0	0	3350.204958	3350.304929	0.099971
39345.25	0.1000002	645	stimuli/non_foods\stim143_inanimate_tools_broom_3.png	1	5	1	broom_3	0	32		NaN	0	0		0	0	3350.354932	3350.454933	0.1000002
39382.75	0.0999884	646	stimuli/non_foods\stim035_animate_human_faces_3.png	1	5	1	faces_3	0	119		NaN	0	0		0	0	3350.50494	3350.604928	0.0999884
39420.25	0.0999874	647	stimuli/foods\fried_zucchini.jpg	1	5	1	fried_zucchini	1	125	TF_159	0	0	0		0	0	3350.65494	3350.754928	0.0999874
39457.75	0.0999963	648	stimuli/non_foods\stim074_animate_mammal_monkey_2.png	1	5	1	monkey_2	0	189		NaN	0	0		0	0	3350.804933	3350.904929	0.0999963
39495.25	0.0999839	649	stimuli/foods\celery.jpg	1	5	1	celery	1	58	NF_092	1	0	0		0	0	3350.95494	3351.054924	0.0999839
39532.75	0.0999927	650	stimuli/foods\fruit_pie.jpg	1	5	1	fruit_pie	1	128	TF_147	0	0	0		0	0	3351.104934	3351.204927	0.0999927
39570.25	0.0999768	651	stimuli/foods\artichoke.jpg	1	5	1	artichoke	1	7	NF_018	1	0	0		0	0	3351.254946	3351.354922	0.0999768
39607.75	0.0999917	652	stimuli/foods\spring_onions.jpg	1	5	1	spring_onions	1	282	NF_086	1	0	0		0	0	3351.404933	3351.504925	0.0999917
39645.25	0.0999954	653	stimuli/foods\hazelnuts.jpg	1	5	1	hazelnuts	1	159	NF_065	1	0	0		0	0	3351.554931	3351.654926	0.0999954
39682.75	0.0999901	654	stimuli/non_foods\stim097_inanimate_clothing_socks_1.png	1	5	1	socks_1	0	267		NaN	0	0		0	0	3351.704927	3351.804917	0.0999901
39720.25	0.100013	655	stimuli/foods\grapes.jpg	1	5	1	grapes	1	142	NF_098	1	0	0		0	0	3351.854933	3351.954946	0.100013
39757.75	0.0999965	656	stimuli/non_foods\stim020_animate_bird_penguin_4.png	1	5	1	penguin_4	0	228		NaN	0	0		0	0	3352.004922	3352.104919	0.0999965
39795.25	0.099996	657	stimuli/non_foods\stim147_inanimate_tools_hammer_3.png	1	5	1	hammer_3	0	153		NaN	0	0		0	0	3352.154919	3352.254915	0.099996
39832.75	0.0999974	658	stimuli/non_foods\stim037_animate_human_sports_1.png	1	5	1	sports_1	0	278		NaN	0	0		0	0	3352.304919	3352.404917	0.0999974
39870.25	0.0999937	659	stimuli/non_foods\stim087_inanimate_clothing_hat_3.png	1	5	1	hat_3	0	157		NaN	0	0		0	0	3352.454918	3352.554912	0.0999937
39907.75	0.0999953	660	stimuli/non_foods\stim003_animate_bird_chicken_3.png	1	5	1	chicken_3	0	68		NaN	0	0		0	0	3352.604915	3352.70491	0.0999953
39945.25	0.0999857	661	stimuli/non_foods\stim027_animate_human_child_3.png	1	5	1	child_3	0	72		NaN	0	0		0	0	3352.754914	3352.8549	0.0999857
39982.75	0.0999853	662	stimuli/foods\baked_lamb_with_potatoes.jpg	1	5	1	baked_lamb_with_potatoes	1	17	TF_001	0	0	0		0	0	3352.90492	3353.004906	0.0999853
40020.25	0.1000011	663	stimuli/foods\lime.jpg	1	5	1	lime	1	180	NF_048	1	0	0		0	0	3353.054919	3353.154921	0.1000011
40057.75	0.0999865	664	stimuli/foods\taco.jpg	1	5	1	taco	1	295	TF_141	0	0	0		0	0	3353.20492	3353.304907	0.0999865
40095.25	0.0999875	665	stimuli/foods\spaghetti_with_olives_and_capers.jpg	1	5	1	spaghetti_with_olives_and_capers	1	276	TF_135	0	0	0		0	0	3353.354916	3353.454904	0.0999875
40132.75	0.0999949	666	stimuli/non_foods\stim124_inanimate_plants_bush_4.png	1	5	1	bush_4	0	43		NaN	0	0		0	0	3353.504908	3353.604903	0.0999949
40170.25	0.0999827	667	stimuli/non_foods\stim096_inanimate_clothing_shirt_4.png	1	5	1	shirt_4	0	265		NaN	0	0		0	0	3353.654946	3353.754929	0.0999827
40207.75	0.0999904	668	stimuli/foods\mortadella.jpg	1	5	1	mortadella	1	192	TF_083	0	0	0		0	0	3353.804912	3353.904903	0.0999904
40245.25	0.0999895	669	stimuli/foods\baguette.jpg	1	5	1	baguette	1	15	TF_006	0	0	0		0	0	3353.954912	3354.054901	0.0999895
40282.75	0.0999842	670	stimuli/foods\nectarine.jpg	1	5	1	nectarine	1	196	NF_078	1	0	0		0	0	3354.10491	3354.204895	0.0999842
40320.25	0.1000014	671	stimuli/foods\cannoli.jpg	1	5	1	cannoli	1	54	TF_022	0	0	0		0	0	3354.254907	3354.354909	0.1000014
40357.75	0.0999993	672	stimuli/non_foods\stim044_animate_insect_ant_4.png	1	5	1	ant_4	0	4		NaN	0	0		0	0	3354.404899	3354.504899	0.0999993
40395.25	0.0999914	673	stimuli/non_foods\stim079_animate_mammal_rhino_3.png	1	5	1	rhino_3	0	248		NaN	0	0		0	0	3354.554902	3354.654894	0.0999914
40432.75	0.1000203	674	stimuli/non_foods\stim032_animate_human_clown_4.png	1	5	1	clown_4	0	88		NaN	0	0		0	0	3354.704895	3354.804915	0.1000203
40470.25	0.0999953	675	stimuli/non_foods\stim012_animate_bird_parrot_4.png	1	5	1	parrot_4	0	215		NaN	0	0		0	0	3354.854895	3354.95489	0.0999953
40507.75	0.0999894	676	stimuli/foods\brie.jpg	1	5	1	brie	1	28	TF_016	0	0	0		0	0	3355.004902	3355.104891	0.0999894
40545.25	0.0999975	677	stimuli/non_foods\stim047_animate_insect_bug_3.png	1	5	1	bug_3	0	38		NaN	0	0		0	0	3355.154895	3355.254892	0.0999975
40582.75	0.0999917	678	stimuli/foods\orange.jpg	1	5	1	orange	1	201	NF_008	1	0	0		0	0	3355.304901	3355.404893	0.0999917
40620.25	0.0999622	679	stimuli/non_foods\stim015_animate_bird_peacock_3.png	1	5	1	peacock_3	0	221		NaN	0	0		0	0	3355.454926	3355.554888	0.0999622
40657.75	0.0999907	680	stimuli/foods\nougat.jpg	1	5	1	nougat	1	197	TF_144	0	0	0		0	0	3355.604896	3355.704887	0.0999907
40695.25	0.0999928	681	stimuli/non_foods\stim090_inanimate_clothing_jeans_2.png	1	5	1	jeans_2	0	165		NaN	0	0		0	0	3355.754889	3355.854882	0.0999928
40732.75	0.0999937	682	stimuli/non_foods\stim004_animate_bird_chicken_4.png	1	5	1	chicken_4	0	69		NaN	0	0		0	0	3355.90489	3356.004883	0.0999937
40770.25	0.0999893	683	stimuli/foods\hamburger.jpg	1	5	1	hamburger	1	150	TF_069	0	0	0		0	0	3356.054893	3356.154883	0.0999893
40807.75	0.0999844	684	stimuli/foods\swordfish.jpg	1	5	1	swordfish	1	290	TF_101	0	0	0		0	0	3356.204891	3356.304876	0.0999844
40845.25	0.0999921	685	stimuli/non_foods\stim001_animate_bird_chicken_1.png	1	5	1	chicken_1	0	66		NaN	0	0		0	0	3356.354885	3356.454877	0.0999921
40882.75	0.1000077	686	stimuli/non_foods\stim130_inanimate_plants_sunflower_2.png	1	5	1	sunflower_2	0	287		NaN	0	0		0	0	3356.504881	3356.604889	0.1000077
40920.25	0.0999824	687	stimuli/non_foods\stim024_animate_human_baby_4.png	1	5	1	baby_4	0	13		NaN	0	0		0	0	3356.654894	3356.754876	0.0999824
40957.75	0.0999889	688	stimuli/foods\almonds.jpg	1	5	1	almonds	1	0	NF_053	1	0	0		0	0	3356.804887	3356.904876	0.0999889
40995.25	0.0999926	689	stimuli/foods\potato_chips.jpg	1	5	1	potato_chips	1	236	TF_097	0	0	0		0	0	3356.954882	3357.054875	0.0999926
41032.75	0.1000172	690	stimuli/non_foods\stim156_inanimate_tools_scissors_4.png	1	5	1	scissors_4	0	261		NaN	0	0		0	0	3357.104874	3357.204891	0.1000172
41070.25	0.0999697	691	stimuli/foods\licorice.jpg	1	5	1	licorice	1	179	TF_078	0	0	0		0	0	3357.2549	3357.35487	0.0999697
41107.75	0.0999995	692	stimuli/non_foods\stim139_inanimate_plants_tulip_3.png	1	5	1	tulip_3	0	305		NaN	0	0		0	0	3357.404873	3357.504873	0.0999995
41145.25	0.0999868	693	stimuli/foods\tomato.jpg	1	5	1	tomato	1	298	NF_084	1	0	0		0	0	3357.554882	3357.654868	0.0999868
41182.75	0.0999905	694	stimuli/non_foods\stim125_inanimate_plants_cactus_1.png	1	5	1	cactus_1	0	49		NaN	0	0		0	0	3357.704874	3357.804865	0.0999905
41220.25	0.0999857	695	stimuli/foods\donut.jpg	1	5	1	donut	1	105	TF_032	0	0	0		0	0	3357.854878	3357.954864	0.0999857
41257.75	0.0999872	696	stimuli/foods\raw_sausage.jpg	1	5	1	raw_sausage	1	243	TF_131	0	0	0		0	0	3358.004875	3358.104863	0.0999872
41295.25	0.0999973	697	stimuli/non_foods\stim038_animate_human_sports_2.png	1	5	1	sports_2	0	279		NaN	0	0		0	0	3358.154867	3358.254864	0.0999973
41332.75	0.0999954	698	stimuli/foods\chocolate_chip_cookies.jpg	1	5	1	chocolate_chip_cookies	1	76	TF_010	0	0	0		0	0	3358.304876	3358.404871	0.0999954
41370.25	0.0999964	699	stimuli/non_foods\stim105_inanimate_furniture_chair_1.png	1	5	1	chair_1	0	60		NaN	0	0		0	0	3358.454866	3358.554862	0.0999964
41407.75	0.099997	700	stimuli/non_foods\stim091_inanimate_clothing_jeans_3.png	1	5	1	jeans_3	0	166		NaN	0	0		0	0	3358.604863	3358.70486	0.099997
41445.25	0.099985	701	stimuli/foods\honey.jpg	1	5	1	honey	1	160	NF_062	1	0	0		0	0	3358.75487	3358.854855	0.099985
41482.75	0.1000255	702	stimuli/foods\gnocchi.jpg	1	5	1	gnocchi	1	140	TF_064	0	0	0		0	0	3358.904864	3359.004889	0.1000255
41520.25	0.0999505	703	stimuli/foods\figs.jpg	1	5	1	figs	1	122	NF_035	1	0	0		0	0	3359.054904	3359.154854	0.0999505
41557.75	0.0999933	704	stimuli/non_foods\stim060_animate_insect_grasshopper_4.png	1	5	1	grasshopper_4	0	146		NaN	0	0		0	0	3359.204856	3359.30485	0.0999933
41595.25	0.0999925	705	stimuli/foods\pea_pod.jpg	1	5	1	pea_pod	1	217	NF_082	1	0	0		0	0	3359.354862	3359.454855	0.0999925
41632.75	0.0999832	706	stimuli/foods\minestrone_soup.jpg	1	5	1	minestrone_soup	1	187	TF_160	0	0	0		0	0	3359.504865	3359.604848	0.0999832
41670.25	0.0999932	707	stimuli/non_foods\stim094_inanimate_clothing_shirt_2.png	1	5	1	shirt_2	0	263		NaN	0	0		0	0	3359.654856	3359.754849	0.0999932
41707.75	0.0999903	708	stimuli/foods\chocolate_pudding.jpg	1	5	1	chocolate_pudding	1	78	TF_018	0	0	0		0	0	3359.80486	3359.90485	0.0999903
41745.25	0.0999921	709	stimuli/non_foods\stim136_inanimate_plants_tree_4.png	1	5	1	tree_4	0	302		NaN	0	0		0	0	3359.954851	3360.054844	0.0999921
41782.75	0.1000058	710	stimuli/foods\avocado.jpg	1	5	1	avocado	1	9	NF_012	1	0	0		0	0	3360.104856	3360.204861	0.1000058
41820.25	0.0999907	711	stimuli/foods\calamari.jpg	1	5	1	calamari	1	53	TF_019	0	0	0		0	0	3360.254855	3360.354846	0.0999907
41857.75	0.0999901	712	stimuli/foods\pear.jpg	1	5	1	pear	1	223	NF_077	1	0	0		0	0	3360.404852	3360.504843	0.0999901
41895.25	0.0999961	713	stimuli/non_foods\stim071_animate_mammal_kangaroo_3.png	1	5	1	kangaroo_3	0	170		NaN	0	0		0	0	3360.554849	3360.654845	0.0999961
41932.75	0.100008	714	stimuli/foods\pineapple.jpg	1	5	1	pineapple	1	231	NF_004	1	0	0		0	0	3360.704853	3360.804861	0.100008
41970.25	0.0999988	715	stimuli/foods\risotto_with_peas_and_asparagus_tips.jpg	1	5	1	risotto_with_peas_and_asparagus_tips	1	252	TF_123	0	0	0		0	0	3360.854867	3360.954866	0.0999988
42007.75	0.0999864	716	stimuli/foods\fries.jpg	1	5	1	fries	1	126	TF_094	0	0	0		0	0	3361.004851	3361.104837	0.0999864
42045.25	0.099996	717	stimuli/non_foods\stim010_animate_bird_parrot_2.png	1	5	1	parrot_2	0	213		NaN	0	0		0	0	3361.154839	3361.254835	0.099996
42082.75	0.1000016	718	stimuli/non_foods\stim029_animate_human_clown_1.png	1	5	1	clown_1	0	85		NaN	0	0		0	0	3361.304838	3361.40484	0.1000016
42120.25	0.0999861	719	stimuli/foods\broccoli.jpg	1	5	1	broccoli	1	29	NF_016	1	0	0		0	0	3361.454847	3361.554833	0.0999861
42157.75	0.0999942	720	stimuli/non_foods\stim114_inanimate_furniture_sofa_2.png	1	5	1	sofa_2	0	272		NaN	0	0		0	0	3361.604839	3361.704833	0.0999942
42195.25	0.0999907	721	stimuli/foods\blackberry.jpg	1	5	1	blackberry	1	24	NF_063	1	0	0		0	0	3361.754842	3361.854832	0.0999907
42232.75	0.0999754	722	stimuli/foods\blue_cheese.jpg	1	5	1	blue_cheese	1	25	TF_066	0	1	0		0	0	3361.904852	3362.004828	0.0999754
42270.25	0.0999972	723	stimuli/non_foods\stim100_inanimate_clothing_socks_4.png	1	5	1	socks_4	0	270		NaN	0	0		0	0	3362.054834	3362.154832	0.0999972
42307.75	0.0999886	724	stimuli/foods\spaghetti_with_meat_sauce.jpg	1	5	1	spaghetti_with_meat_sauce	1	275	TF_137	0	0	1	f	0.3920849	1	3362.204839	3362.304828	0.0999886
42345.25	0.0999942	725	stimuli/non_foods\stim053_animate_insect_dragonfly_1.png	1	5	1	dragonfly_1	0	106		NaN	0	0		0	0	3362.35483	3362.454825	0.0999942
42382.75	0.1000181	726	stimuli/non_foods\stim106_inanimate_furniture_chair_2.png	1	5	1	chair_2	0	61		NaN	0	0		0	0	3362.504838	3362.604856	0.1000181
42420.25	0.0999845	727	stimuli/foods\chocolate_bar.jpg	1	5	1	chocolate_bar	1	75	TF_033	0	0	0		0	0	3362.654837	3362.754822	0.0999845
42457.75	0.0999905	728	stimuli/non_foods\stim108_inanimate_furniture_chair_4.png	1	5	1	chair_4	0	63		NaN	0	0		0	0	3362.804833	3362.904824	0.0999905
42495.25	0.0999856	729	stimuli/foods\linguine_with_clams.jpg	1	5	1	linguine_with_clams	1	181	TF_077	0	0	0		0	0	3362.954832	3363.054818	0.0999856
42532.75	0.0999885	730	stimuli/foods\rice.jpg	1	5	1	rice	1	250	TF_121	0	0	0		0	0	3363.104828	3363.204817	0.0999885
42570.25	0.0999894	731	stimuli/foods\grapefruits.jpg	1	5	1	grapefruits	1	141	NF_085	1	0	0		0	0	3363.254829	3363.354818	0.0999894
42607.75	0.0999962	732	stimuli/non_foods\stim057_animate_insect_grasshopper_1.png	1	5	1	grasshopper_1	0	143		NaN	0	0		0	0	3363.404819	3363.504816	0.0999962
42645.25	0.0999926	733	stimuli/non_foods\stim093_inanimate_clothing_shirt_1.png	1	5	1	shirt_1	0	262		NaN	0	0		0	0	3363.554823	3363.654816	0.0999926
42682.75	0.0999978	734	stimuli/non_foods\stim135_inanimate_plants_tree_3.png	1	5	1	tree_3	0	301		NaN	0	0		0	0	3363.704821	3363.804819	0.0999978
42720.25	0.0999906	735	stimuli/non_foods\stim111_inanimate_furniture_closet_3.png	1	5	1	closet_3	0	83		NaN	0	0		0	0	3363.854819	3363.95481	0.0999906
