onset	duration	eventnumber	stimpath	blockno	trialno	is_faststream	stim	food_idx	image_number	stim_code	is_natural	istarget	response	keypressed	rt	correct	time_stimon	time_stimoff	stimdur
44956.75	0.0999862	0	non_foods\stim005_animate_bird_duck_1.png	1	1	1	duck_1	0	111	n/a	NaN	0	0	n/a	0	0	691.9510625	692.0510487	0.0999862
44994	0.0999896	1	non_foods\stim062_animate_mammal_cow_2.png	1	1	1	cow_2	0	95	n/a	NaN	0	0	n/a	0	0	692.1010555	692.2010451	0.0999896
45031.5	0.0999904	2	foods\brownie.jpg	1	1	1	brownie	1	34	TF_011	0	0	0	n/a	0	0	692.2510508	692.3510412	0.0999904
45069	0.0999732	3	foods\pineapple.jpg	1	1	1	pineapple	1	231	NF_004	1	0	0	n/a	0	0	692.4010479	692.5010211	0.0999732
45106.5	0.0999852	4	foods\cream_donuts.jpg	1	1	1	cream_donuts	1	99	TF_014	0	0	0	n/a	0	0	692.551051	692.6510362	0.0999852
45144	0.0999936	5	non_foods\stim081_inanimate_clothing_gloves_1.png	1	1	1	gloves_1	0	136	n/a	NaN	0	0	n/a	0	0	692.7010519	692.8010455	0.0999936
45181.5	0.0999905	6	non_foods\stim106_inanimate_furniture_chair_2.png	1	1	1	chair_2	0	61	n/a	NaN	0	0	n/a	0	0	692.8510475	692.951038	0.0999905
45219	0.1001852	7	foods\oyster.jpg	1	1	1	oyster	1	204	NF_067	1	0	0	n/a	0	0	693.0010472	693.1012324	0.1001852
45256.5	0.0999885	8	non_foods\stim094_inanimate_clothing_shirt_2.png	1	1	1	shirt_2	0	263	n/a	NaN	0	0	n/a	0	0	693.1510451	693.2510336	0.0999885
45294	0.0999959	9	non_foods\stim091_inanimate_clothing_jeans_3.png	1	1	1	jeans_3	0	166	n/a	NaN	0	0	n/a	0	0	693.3010414	693.4010373	0.0999959
45331.5	0.0999913	10	foods\papaya.jpg	1	1	1	papaya	1	210	NF_069	1	0	0	n/a	0	0	693.451045	693.5510363	0.0999913
45369	0.0999857	11	non_foods\stim131_inanimate_plants_sunflower_3.png	1	1	1	sunflower_3	0	288	n/a	NaN	0	0	n/a	0	0	693.6010375	693.7010232	0.0999857
45406.5	0.0999951	12	non_foods\stim086_inanimate_clothing_hat_2.png	1	1	1	hat_2	0	156	n/a	NaN	0	0	n/a	0	0	693.751035	693.8510301	0.0999951
45444	0.0999657	13	foods\potato_and_green_bean_salad.jpg	1	1	1	potato_and_green_bean_salad	1	235	TF_072	0	0	0	n/a	0	0	693.9010536	694.0010193	0.0999657
45481.5	0.0999868	14	foods\nougat.jpg	1	1	1	nougat	1	197	TF_144	0	0	0	n/a	0	0	694.0510316	694.1510184	0.0999868
45519	0.1000894	15	non_foods\stim054_animate_insect_dragonfly_2.png	1	1	1	dragonfly_2	0	107	n/a	NaN	0	0	n/a	0	0	694.2010418	694.3011312	0.1000894
45556.5	0.0999827	16	foods\spinach.jpg	1	1	1	spinach	1	277	NF_094	1	0	0	n/a	0	0	694.3510389	694.4510216	0.0999827
45594	0.0999864	17	non_foods\stim008_animate_bird_duck_4.png	1	1	1	duck_4	0	114	n/a	NaN	0	0	n/a	0	0	694.5010273	694.6010137	0.0999864
45631.5	0.0999876	18	foods\grilled_chicken_breast.jpg	1	1	1	grilled_chicken_breast	1	149	TF_104	0	0	0	n/a	0	0	694.6510351	694.7510227	0.0999876
45669	0.1000014	19	non_foods\stim117_inanimate_furniture_table_1.png	1	1	1	table_1	0	291	n/a	NaN	0	0	n/a	0	0	694.8010207	694.9010221	0.1000014
45706.5	0.0999888	20	non_foods\stim112_inanimate_furniture_closet_4.png	1	1	1	closet_4	0	84	n/a	NaN	0	0	n/a	0	0	694.9510302	695.051019	0.0999888
45744	0.0999871	21	foods\octopus.jpg	1	1	1	octopus	1	198	TF_113	0	0	0	n/a	0	0	695.1010285	695.2010156	0.0999871
45781.5	0.0999937	22	foods\onion.jpg	1	1	1	onion	1	200	NF_029	1	0	0	n/a	0	0	695.251026	695.3510197	0.0999937
45819	0.0999946	23	foods\orange.jpg	1	1	1	orange	1	201	NF_008	1	0	0	n/a	0	0	695.401022	695.5010166	0.0999946
45856.5	0.0999933	24	non_foods\stim066_animate_mammal_giraffe_2.png	1	1	1	giraffe_2	0	133	n/a	NaN	0	0	n/a	0	0	695.5510186	695.6510119	0.0999933
45894	0.0999947	25	non_foods\stim065_animate_mammal_giraffe_1.png	1	1	1	giraffe_1	0	132	n/a	NaN	0	0	n/a	0	0	695.7010166	695.8010113	0.0999947
45931.5	0.0999616	26	non_foods\stim072_animate_mammal_kangaroo_4.png	1	1	1	kangaroo_4	0	171	n/a	NaN	0	0	n/a	0	0	695.8510414	695.951003	0.0999616
45969	0.0999885	27	foods\lamb_chops.jpg	1	1	1	lamb_chops	1	173	TF_040	0	0	0	n/a	0	0	696.0010197	696.1010082	0.0999885
46006.5	0.0999946	28	foods\chilli.jpg	1	1	1	chilli	1	74	NF_073	1	0	0	n/a	0	0	696.1510159	696.2510105	0.0999946
46044	0.099986	29	non_foods\stim024_animate_human_baby_4.png	1	1	1	baby_4	0	13	n/a	NaN	0	0	n/a	0	0	696.3010147	696.4010007	0.099986
46081.5	0.0999989	30	non_foods\stim010_animate_bird_parrot_2.png	1	1	1	parrot_2	0	213	n/a	NaN	0	0	n/a	0	0	696.4510072	696.5510061	0.0999989
46119	0.0999924	31	foods\raisins.jpg	1	1	1	raisins	1	241	NF_096	1	0	0	n/a	0	0	696.601014	696.7010064	0.0999924
46156.5	0.0999819	32	foods\cooked_prawn.jpg	1	1	1	cooked_prawn	1	92	TF_060	0	0	0	n/a	0	0	696.7510175	696.8509994	0.0999819
46194	0.0999889	33	foods\baguette.jpg	1	1	1	baguette	1	15	TF_006	0	0	0	n/a	0	0	696.9010088	697.0009977	0.0999889
46231.5	0.0999938	34	non_foods\stim123_inanimate_plants_bush_3.png	1	1	1	bush_3	0	42	n/a	NaN	0	0	n/a	0	0	697.0510047	697.1509985	0.0999938
46269	0.0999881	35	foods\chestnut.jpg	1	1	1	chestnut	1	65	NF_020	1	0	0	n/a	0	0	697.2010071	697.3009952	0.0999881
46306.5	0.0999987	36	non_foods\stim120_inanimate_furniture_table_4.png	1	1	1	table_4	0	294	n/a	NaN	0	0	n/a	0	0	697.351001	697.4509997	0.0999987
46344	0.0999974	37	non_foods\stim064_animate_mammal_cow_4.png	1	1	1	cow_4	0	97	n/a	NaN	0	0	n/a	0	0	697.5009993	697.6009967	0.0999974
46381.5	0.1000079	38	non_foods\stim037_animate_human_sports_1.png	1	1	1	sports_1	0	278	n/a	NaN	0	0	n/a	0	0	697.6509882	697.7509961	0.1000079
46419	0.099976	39	non_foods\stim057_animate_insect_grasshopper_1.png	1	1	1	grasshopper_1	0	143	n/a	NaN	0	0	n/a	0	0	697.8009958	697.9009718	0.099976
46456.5	0.0999899	40	foods\almonds.jpg	1	1	1	almonds	1	0	NF_053	1	0	0	n/a	0	0	697.9509972	698.0509871	0.0999899
46494	0.0999894	41	foods\cuttlefish.jpg	1	1	1	cuttlefish	1	103	NF_093	1	0	0	n/a	0	0	698.1010008	698.2009902	0.0999894
46531.5	0.0999936	42	non_foods\stim007_animate_bird_duck_3.png	1	1	1	duck_3	0	113	n/a	NaN	0	0	n/a	0	0	698.2509874	698.350981	0.0999936
46569	0.0999854	43	foods\lettuce.jpg	1	1	1	lettuce	1	178	NF_046	1	0	0	n/a	0	0	698.4010008	698.5009862	0.0999854
46606.5	0.0999917	44	foods\radish.jpg	1	1	1	radish	1	240	NF_090	1	0	0	n/a	0	0	698.5509928	698.6509845	0.0999917
46644	0.099978	45	foods\cauliflower.jpg	1	1	1	cauliflower	1	57	NF_022	1	0	0	n/a	0	0	698.7010056	698.8009836	0.099978
46681.5	0.0999899	46	foods\mushroom.jpg	1	1	1	mushroom	1	194	NF_039	1	0	0	n/a	0	0	698.8509931	698.950983	0.0999899
46719	0.1000009	47	non_foods\stim155_inanimate_tools_scissors_3.png	1	1	1	scissors_3	0	260	n/a	NaN	0	0	n/a	0	0	699.0009823	699.1009832	0.1000009
46756.5	0.0999908	48	non_foods\stim015_animate_bird_peacock_3.png	1	1	1	peacock_3	0	221	n/a	NaN	0	0	n/a	0	0	699.150989	699.2509798	0.0999908
46794	0.1000256	49	foods\licorice.jpg	1	1	1	licorice	1	179	TF_078	0	0	0	n/a	0	0	699.3009629	699.4009885	0.1000256
46831.5	0.1000132	50	non_foods\stim122_inanimate_plants_bush_2.png	1	1	1	bush_2	0	41	n/a	NaN	0	0	n/a	0	0	699.4509632	699.5509764	0.1000132
46869	0.1000119	51	non_foods\stim143_inanimate_tools_broom_3.png	1	1	1	broom_3	0	32	n/a	NaN	0	0	n/a	0	0	699.6009738	699.7009857	0.1000119
46906.5	0.1000004	52	non_foods\stim121_inanimate_plants_bush_1.png	1	1	1	bush_1	0	40	n/a	NaN	0	0	n/a	0	0	699.7509743	699.8509747	0.1000004
46944	0.0999872	53	foods\ice_cream.jpg	1	1	1	ice_cream	1	162	TF_062	0	0	0	n/a	0	0	699.9009824	700.0009696	0.0999872
46981.5	0.0999916	54	non_foods\stim135_inanimate_plants_tree_3.png	1	1	1	tree_3	0	301	n/a	NaN	0	0	n/a	0	0	700.0509756	700.1509672	0.0999916
47019	0.1000003	55	non_foods\stim006_animate_bird_duck_2.png	1	1	1	duck_2	0	112	n/a	NaN	0	0	n/a	0	0	700.2009716	700.3009719	0.1000003
47056.5	0.0999867	56	foods\green_beans.jpg	1	1	1	green_beans	1	147	NF_034	1	0	0	n/a	0	0	700.3509797	700.4509664	0.0999867
47094	0.0999992	57	non_foods\stim147_inanimate_tools_hammer_3.png	1	1	1	hammer_3	0	153	n/a	NaN	0	0	n/a	0	0	700.5009646	700.6009638	0.0999992
47131.5	0.0999891	58	foods\grapefruits.jpg	1	1	1	grapefruits	1	141	NF_085	1	0	0	n/a	0	0	700.6509746	700.7509637	0.0999891
47169	0.0999903	59	foods\cracker.jpg	1	1	1	cracker	1	98	TF_043	0	0	0	n/a	0	0	700.800971	700.9009613	0.0999903
47206.5	0.1000002	60	foods\pasta_carbonara.jpg	1	1	1	pasta_carbonara	1	216	TF_027	0	0	0	n/a	0	0	700.9509724	701.0509726	0.1000002
47244	0.0999896	61	foods\baked_lamb_with_potatoes.jpg	1	1	1	baked_lamb_with_potatoes	1	17	TF_001	0	0	0	n/a	0	0	701.1009694	701.200959	0.0999896
47281.5	0.0999882	62	non_foods\stim087_inanimate_clothing_hat_3.png	1	1	1	hat_3	0	157	n/a	NaN	0	0	n/a	0	0	701.2509719	701.3509601	0.0999882
47319	0.0999902	63	foods\croissant.jpg	1	1	1	croissant	1	100	TF_037	0	0	0	n/a	0	0	701.4009674	701.5009576	0.0999902
47356.5	0.0999975	64	foods\lasagna.jpg	1	1	1	lasagna	1	174	TF_076	0	0	0	n/a	0	0	701.5509583	701.6509558	0.0999975
47394	0.0999918	65	foods\fried_zucchini.jpg	1	1	1	fried_zucchini	1	125	TF_159	0	0	0	n/a	0	0	701.7009624	701.8009542	0.0999918
47431.5	0.0999861	66	foods\hotdog.jpg	1	1	1	hotdog	1	161	TF_070	0	0	0	n/a	0	0	701.8509658	701.9509519	0.0999861
47469	0.0999898	67	non_foods\stim083_inanimate_clothing_gloves_3.png	1	1	1	gloves_3	0	138	n/a	NaN	0	0	n/a	0	0	702.0009572	702.100947	0.0999898
47506.5	0.0999966	68	non_foods\stim118_inanimate_furniture_table_2.png	1	1	1	table_2	0	292	n/a	NaN	0	0	n/a	0	0	702.1509531	702.2509497	0.0999966
47544	0.0999903	69	foods\mandarin.jpg	1	1	1	mandarin	1	184	NF_052	1	1	0	n/a	0	0	702.3009573	702.4009476	0.0999903
47581.5	0.0999875	70	foods\lobster.jpg	1	1	1	lobster	1	182	NF_007	1	0	0	n/a	0	0	702.45096	702.5509475	0.0999875
47619	0.0999675	71	non_foods\stim111_inanimate_furniture_closet_3.png	1	1	1	closet_3	0	83	n/a	NaN	0	0	n/a	0	0	702.6009571	702.7009246	0.0999675
47656.5	0.0999959	72	foods\kiwi.jpg	1	1	1	kiwi	1	172	NF_044	1	0	1	d	0.4424192	1	702.7509482	702.8509441	0.0999959
47694	0.0999861	73	foods\donut.jpg	1	1	1	donut	1	105	TF_032	0	0	0	n/a	0	0	702.9009512	703.0009373	0.0999861
47731.5	0.099984	74	foods\linguine_with_clams.jpg	1	1	1	linguine_with_clams	1	181	TF_077	0	0	0	n/a	0	0	703.0509487	703.1509327	0.099984
47769	0.0999958	75	non_foods\stim146_inanimate_tools_hammer_2.png	1	1	1	hammer_2	0	152	n/a	NaN	0	0	n/a	0	0	703.2009348	703.3009306	0.0999958
47806.5	0.099987	76	foods\bread.jpg	1	1	1	bread	1	26	TF_089	0	0	0	n/a	0	0	703.3509431	703.4509301	0.099987
47844	0.1000008	77	foods\fennel.jpg	1	1	1	fennel	1	121	NF_036	1	0	0	n/a	0	0	703.5009335	703.6009343	0.1000008
47881.5	0.0999976	78	non_foods\stim152_inanimate_tools_pan_4.png	1	1	1	pan_4	0	208	n/a	NaN	0	0	n/a	0	0	703.650937	703.7509346	0.0999976
47919	0.100005	79	foods\cinnamon_sroll.jpg	1	1	1	cinnamon_sroll	1	80	TF_021	0	0	0	n/a	0	0	703.8009352	703.9009402	0.100005
47956.5	0.0999952	80	non_foods\stim100_inanimate_clothing_socks_4.png	1	1	1	socks_4	0	270	n/a	NaN	0	0	n/a	0	0	703.9509379	704.0509331	0.0999952
47994	0.0999923	81	non_foods\stim036_animate_human_faces_4.png	1	1	1	faces_4	0	120	n/a	NaN	0	0	n/a	0	0	704.1009396	704.2009319	0.0999923
48031.5	0.0999955	82	non_foods\stim077_animate_mammal_rhino_1.png	1	1	1	rhino_1	0	246	n/a	NaN	0	0	n/a	0	0	704.2509364	704.3509319	0.0999955
48069	0.0999867	83	non_foods\stim001_animate_bird_chicken_1.png	1	1	1	chicken_1	0	66	n/a	NaN	0	0	n/a	0	0	704.4009312	704.5009179	0.0999867
48106.5	0.1000149	84	non_foods\stim014_animate_bird_peacock_2.png	1	1	1	peacock_2	0	220	n/a	NaN	0	0	n/a	0	0	704.5509285	704.6509434	0.1000149
48144	0.0999836	85	foods\lime.jpg	1	1	1	lime	1	180	NF_048	1	0	0	n/a	0	0	704.7009291	704.8009127	0.0999836
48181.5	0.0999827	86	foods\minestrone_soup.jpg	1	1	1	minestrone_soup	1	187	TF_160	0	0	0	n/a	0	0	704.8509225	704.9509052	0.0999827
48219	0.1000143	87	foods\taco.jpg	1	1	1	taco	1	295	TF_141	0	0	0	n/a	0	0	705.0009057	705.10092	0.1000143
48256.5	0.0999924	88	non_foods\stim105_inanimate_furniture_chair_1.png	1	1	1	chair_1	0	60	n/a	NaN	0	0	n/a	0	0	705.1509252	705.2509176	0.0999924
48294	0.0999899	89	non_foods\stim038_animate_human_sports_2.png	1	1	1	sports_2	0	279	n/a	NaN	0	0	n/a	0	0	705.3009297	705.4009196	0.0999899
48331.5	0.0999903	90	foods\fries.jpg	1	1	1	fries	1	126	TF_094	0	0	0	n/a	0	0	705.4509276	705.5509179	0.0999903
48369	0.0999944	91	non_foods\stim158_inanimate_tools_wrench_2.png	1	1	1	wrench_2	0	311	n/a	NaN	0	0	n/a	0	0	705.6009182	705.7009126	0.0999944
48406.5	0.0999982	92	non_foods\stim148_inanimate_tools_hammer_4.png	1	1	1	hammer_4	0	154	n/a	NaN	0	0	n/a	0	0	705.7509175	705.8509157	0.0999982
48444	0.0999983	93	non_foods\stim044_animate_insect_ant_4.png	1	1	1	ant_4	0	4	n/a	NaN	0	0	n/a	0	0	705.9009129	706.0009112	0.0999983
48481.5	0.0999986	94	non_foods\stim061_animate_mammal_cow_1.png	1	1	1	cow_1	0	94	n/a	NaN	0	0	n/a	0	0	706.0509153	706.1509139	0.0999986
48519	0.0999857	95	non_foods\stim074_animate_mammal_monkey_2.png	1	1	1	monkey_2	0	189	n/a	NaN	0	0	n/a	0	0	706.2009195	706.3009052	0.0999857
48556.5	0.0999918	96	non_foods\stim076_animate_mammal_monkey_4.png	1	1	1	monkey_4	0	191	n/a	NaN	0	0	n/a	0	0	706.3509163	706.4509081	0.0999918
48594	0.0999837	97	non_foods\stim032_animate_human_clown_4.png	1	1	1	clown_4	0	88	n/a	NaN	0	0	n/a	0	0	706.5009248	706.6009085	0.0999837
48631.5	0.0999926	98	non_foods\stim059_animate_insect_grasshopper_3.png	1	1	1	grasshopper_3	0	145	n/a	NaN	0	0	n/a	0	0	706.6509113	706.7509039	0.0999926
48669	0.0999884	99	foods\oregano.jpg	1	1	1	oregano	1	202	NF_066	1	0	0	n/a	0	0	706.800914	706.9009024	0.0999884
48706.5	0.0999979	100	non_foods\stim058_animate_insect_grasshopper_2.png	1	1	1	grasshopper_2	0	144	n/a	NaN	0	0	n/a	0	0	706.950908	707.0509059	0.0999979
48744	0.0999817	101	foods\tomato.jpg	1	1	1	tomato	1	298	NF_084	1	0	0	n/a	0	0	707.1009101	707.2008918	0.0999817
48781.5	0.0999922	102	foods\artichoke.jpg	1	1	1	artichoke	1	7	NF_018	1	0	0	n/a	0	0	707.2509091	707.3509013	0.0999922
48819	0.0999848	103	non_foods\stim141_inanimate_tools_broom_1.png	1	1	1	broom_1	0	30	n/a	NaN	0	0	n/a	0	0	707.4009069	707.5008917	0.0999848
48856.5	0.0999752	104	foods\dried_figs.jpg	1	1	1	dried_figs	1	110	TF_054	0	0	0	n/a	0	0	707.5508971	707.6508723	0.0999752
48894	0.0999957	105	non_foods\stim103_inanimate_furniture_bed_3.png	1	1	1	bed_3	0	21	n/a	NaN	0	0	n/a	0	0	707.7009026	707.8008983	0.0999957
48931.5	0.099994	106	non_foods\stim027_animate_human_child_3.png	1	1	1	child_3	0	72	n/a	NaN	0	0	n/a	0	0	707.8508979	707.9508919	0.099994
48969	0.0999915	107	non_foods\stim151_inanimate_tools_pan_3.png	1	1	1	pan_3	0	207	n/a	NaN	0	0	n/a	0	0	708.000896	708.1008875	0.0999915
49006.5	0.0999934	108	foods\nectarine.jpg	1	1	1	nectarine	1	196	NF_078	1	0	0	n/a	0	0	708.1508966	708.25089	0.0999934
49044	0.1000016	109	foods\cucumber.jpg	1	1	1	cucumber	1	101	NF_026	1	0	0	n/a	0	0	708.3008877	708.4008893	0.1000016
49081.5	0.0999973	110	non_foods\stim013_animate_bird_peacock_1.png	1	1	1	peacock_1	0	219	n/a	NaN	0	0	n/a	0	0	708.450891	708.5508883	0.0999973
49119	0.0999921	111	foods\omelette.jpg	1	1	1	omelette	1	199	TF_057	0	0	0	n/a	0	0	708.600892	708.7008841	0.0999921
49156.5	0.0999926	112	non_foods\stim085_inanimate_clothing_hat_1.png	1	1	1	hat_1	0	155	n/a	NaN	0	0	n/a	0	0	708.7508903	708.8508829	0.0999926
49194	0.0999959	113	foods\frankfurters.jpg	1	1	1	frankfurters	1	123	TF_156	0	0	0	n/a	0	0	708.9008937	709.0008896	0.0999959
49231.5	0.0999922	114	foods\figs.jpg	1	1	1	figs	1	122	NF_035	1	0	0	n/a	0	0	709.0508909	709.1508831	0.0999922
49269	0.1000065	115	non_foods\stim069_animate_mammal_kangaroo_1.png	1	1	1	kangaroo_1	0	168	n/a	NaN	0	0	n/a	0	0	709.2008764	709.3008829	0.1000065
49306.5	0.0999895	116	non_foods\stim048_animate_insect_bug_4.png	1	1	1	bug_4	0	39	n/a	NaN	0	0	n/a	0	0	709.3508886	709.4508781	0.0999895
49344	0.1000031	117	foods\fruit_pie.jpg	1	1	1	fruit_pie	1	128	TF_147	0	0	0	n/a	0	0	709.5008873	709.6008904	0.1000031
49381.5	0.0999693	118	non_foods\stim096_inanimate_clothing_shirt_4.png	1	1	1	shirt_4	0	265	n/a	NaN	0	0	n/a	0	0	709.6509079	709.7508772	0.0999693
49419	0.0999877	119	foods\rice_cake.jpg	1	1	1	rice_cake	1	251	TF_059	0	0	0	n/a	0	0	709.8008874	709.9008751	0.0999877
49456.5	0.0999923	120	foods\lemon_meringue_pie.jpg	1	1	1	lemon_meringue_pie	1	176	TF_151	0	0	0	n/a	0	0	709.9508839	710.0508762	0.0999923
49494	0.1000109	121	non_foods\stim056_animate_insect_dragonfly_4.png	1	1	1	dragonfly_4	0	109	n/a	NaN	0	0	n/a	0	0	710.1008606	710.2008715	0.1000109
49531.5	0.099986	122	foods\eggplant.jpg	1	1	1	eggplant	1	116	NF_059	1	0	0	n/a	0	0	710.2508824	710.3508684	0.099986
49569	0.0999836	123	foods\lentils.jpg	1	1	1	lentils	1	177	NF_047	1	0	0	n/a	0	0	710.4008892	710.5008728	0.0999836
49606.5	0.0999913	124	non_foods\stim040_animate_human_sports_4.png	1	1	1	sports_4	0	281	n/a	NaN	0	0	n/a	0	0	710.5508729	710.6508642	0.0999913
49644	0.0999942	125	foods\capsicum.jpg	1	1	1	capsicum	1	55	NF_076	1	1	0	n/a	0	0	710.7008675	710.8008617	0.0999942
49681.5	0.1000043	126	non_foods\stim025_animate_human_child_1.png	1	1	1	child_1	0	70	n/a	NaN	0	0	n/a	0	0	710.8508528	710.9508571	0.1000043
49719	0.0999902	127	foods\gnocchi.jpg	1	1	1	gnocchi	1	140	TF_064	0	0	1	d	0.3920949	1	711.0008676	711.1008578	0.0999902
49756.5	0.0999971	128	non_foods\stim021_animate_human_baby_1.png	1	1	1	baby_1	0	10	n/a	NaN	0	0	n/a	0	0	711.1508587	711.2508558	0.0999971
49794	0.0999961	129	non_foods\stim097_inanimate_clothing_socks_1.png	1	1	1	socks_1	0	267	n/a	NaN	0	0	n/a	0	0	711.3008566	711.4008527	0.0999961
49831.5	0.099994	130	non_foods\stim046_animate_insect_bug_2.png	1	1	1	bug_2	0	37	n/a	NaN	0	0	n/a	0	0	711.4508617	711.5508557	0.099994
49869	0.0999996	131	non_foods\stim160_inanimate_tools_wrench_4.png	1	1	1	wrench_4	0	313	n/a	NaN	0	0	n/a	0	0	711.6008608	711.7008604	0.0999996
49906.5	0.0999898	132	foods\raw_ham.jpg	1	1	1	raw_ham	1	242	TF_117	0	0	0	n/a	0	0	711.7508644	711.8508542	0.0999898
49944	0.0999998	133	non_foods\stim043_animate_insect_ant_3.png	1	1	1	ant_3	0	3	n/a	NaN	0	0	n/a	0	0	711.9008562	712.000856	0.0999998
49981.5	0.1000019	134	non_foods\stim133_inanimate_plants_tree_1.png	1	1	1	tree_1	0	299	n/a	NaN	0	0	n/a	0	0	712.0508546	712.1508565	0.1000019
50019	0.1000072	135	non_foods\stim035_animate_human_faces_3.png	1	1	1	faces_3	0	119	n/a	NaN	0	0	n/a	0	0	712.2008517	712.3008589	0.1000072
50056.5	0.0999931	136	foods\peas.jpg	1	1	1	peas	1	224	NF_081	1	0	0	n/a	0	0	712.3508577	712.4508508	0.0999931
50094	0.0999879	137	foods\toasted_bread_with_tomatoes.jpg	1	1	1	toasted_bread_with_tomatoes	1	297	TF_017	0	0	0	n/a	0	0	712.5008581	712.600846	0.0999879
50131.5	0.0999966	138	non_foods\stim039_animate_human_sports_3.png	1	1	1	sports_3	0	280	n/a	NaN	0	0	n/a	0	0	712.6508502	712.7508468	0.0999966
50169	0.0999961	139	non_foods\stim026_animate_human_child_2.png	1	1	1	child_2	0	71	n/a	NaN	0	0	n/a	0	0	712.8008494	712.9008455	0.0999961
50206.5	0.0999894	140	foods\mussels.jpg	1	1	1	mussels	1	195	TF_042	0	0	0	n/a	0	0	712.9508542	713.0508436	0.0999894
50244	0.0999697	141	foods\pork_and_rice.jpg	1	1	1	pork_and_rice	1	233	TF_080	0	0	0	n/a	0	0	713.1008729	713.2008426	0.0999697
50281.5	0.0999911	142	foods\chocolate_pralines.jpg	1	1	1	chocolate_pralines	1	77	TF_035	0	0	0	n/a	0	0	713.2508526	713.3508437	0.0999911
50319	0.0999923	143	foods\swordfish.jpg	1	1	1	swordfish	1	290	TF_101	0	0	0	n/a	0	0	713.4008493	713.5008416	0.0999923
50356.5	0.0999896	144	foods\cooked_ham.jpg	1	1	1	cooked_ham	1	91	TF_116	0	0	0	n/a	0	0	713.5508492	713.6508388	0.0999896
50394	0.0999797	145	foods\chocolate_chip_cookies.jpg	1	1	1	chocolate_chip_cookies	1	76	TF_010	0	0	0	n/a	0	0	713.7008454	713.8008251	0.0999797
50431.5	0.099997	146	non_foods\stim034_animate_human_faces_2.png	1	1	1	faces_2	0	118	n/a	NaN	0	0	n/a	0	0	713.8508315	713.9508285	0.099997
50469	0.1000123	147	non_foods\stim029_animate_human_clown_1.png	1	1	1	clown_1	0	85	n/a	NaN	0	0	n/a	0	0	714.0008166	714.1008289	0.1000123
50506.5	0.0999914	148	foods\salami.jpg	1	1	1	salami	1	255	TF_127	0	0	0	n/a	0	0	714.1508347	714.2508261	0.0999914
50544	0.1000039	149	foods\risotto_with_peas_and_asparagus_tips.jpg	1	1	1	risotto_with_peas_and_asparagus_tips	1	252	TF_123	0	0	0	n/a	0	0	714.3008286	714.4008325	0.1000039
50581.5	0.0999863	150	foods\rockmelon.jpg	1	1	1	rockmelon	1	254	NF_060	1	0	0	n/a	0	0	714.450844	714.5508303	0.0999863
50619	0.1000077	151	foods\blue_cheese.jpg	1	1	1	blue_cheese	1	25	TF_066	0	0	0	n/a	0	0	714.6008303	714.700838	0.1000077
50656.5	0.0999862	152	non_foods\stim017_animate_bird_penguin_1.png	1	1	1	penguin_1	0	225	n/a	NaN	0	0	n/a	0	0	714.7508425	714.8508287	0.0999862
50694	0.0999919	153	foods\toast.jpg	1	1	1	toast	1	296	TF_053	0	0	0	n/a	0	0	714.9008343	715.0008262	0.0999919
50731.5	0.0999926	154	foods\hazelnuts.jpg	1	1	1	hazelnuts	1	159	NF_065	1	0	0	n/a	0	0	715.0508341	715.1508267	0.0999926
50769	0.0999949	155	foods\red_beans.jpg	1	1	1	red_beans	1	244	NF_033	1	0	0	n/a	0	0	715.2008277	715.3008226	0.0999949
50806.5	0.0999845	156	foods\cabbage.jpg	1	1	1	cabbage	1	48	NF_025	1	0	0	n/a	0	0	715.3508305	715.450815	0.0999845
53160.75	0.0999919	157	non_foods\stim137_inanimate_plants_tulip_1.png	1	2	1	tulip_1	0	303	n/a	NaN	0	0	n/a	0	0	724.7674065	724.8673984	0.0999919
53198.25	0.0999958	158	non_foods\stim127_inanimate_plants_cactus_3.png	1	2	1	cactus_3	0	51	n/a	NaN	0	0	n/a	0	0	724.9174029	725.0173987	0.0999958
53235.75	0.1000214	159	non_foods\stim107_inanimate_furniture_chair_3.png	1	2	1	chair_3	0	62	n/a	NaN	0	0	n/a	0	0	725.0674062	725.1674276	0.1000214
53273.25	0.0999886	160	foods\dates.jpg	1	2	1	dates	1	104	NF_032	1	0	0	n/a	0	0	725.2174042	725.3173928	0.0999886
53310.75	0.099992	161	foods\spaghetti_with_olives_and_capers.jpg	1	2	1	spaghetti_with_olives_and_capers	1	276	TF_135	0	0	0	n/a	0	0	725.3674005	725.4673925	0.099992
53348.25	0.0999864	162	foods\fruit_flan.jpg	1	2	1	fruit_flan	1	127	TF_093	0	0	0	n/a	0	0	725.5174029	725.6173893	0.0999864
53385.75	0.0999908	163	foods\garlic.jpg	1	2	1	garlic	1	130	NF_001	1	0	0	n/a	0	0	725.6673975	725.7673883	0.0999908
53423.25	0.0999926	164	foods\broccoli.jpg	1	2	1	broccoli	1	29	NF_016	1	0	0	n/a	0	0	725.8174002	725.9173928	0.0999926
53460.75	0.1000001	165	foods\waffle.jpg	1	2	1	waffle	1	308	TF_030	0	0	0	n/a	0	0	725.9673872	726.0673873	0.1000001
53498.25	0.0999973	166	non_foods\stim132_inanimate_plants_sunflower_4.png	1	2	1	sunflower_4	0	289	n/a	NaN	0	0	n/a	0	0	726.1173903	726.2173876	0.0999973
53535.75	0.0999931	167	non_foods\stim124_inanimate_plants_bush_4.png	1	2	1	bush_4	0	43	n/a	NaN	0	0	n/a	0	0	726.2673903	726.3673834	0.0999931
53573.25	0.099992	168	foods\brie.jpg	1	2	1	brie	1	28	TF_016	0	0	0	n/a	0	0	726.4173902	726.5173822	0.099992
53610.75	0.0999988	169	non_foods\stim157_inanimate_tools_wrench_1.png	1	2	1	wrench_1	0	310	n/a	NaN	0	0	n/a	0	0	726.5673835	726.6673823	0.0999988
53648.25	0.0999734	170	foods\fried_calamari.jpg	1	2	1	fried_calamari	1	124	TF_020	0	0	0	n/a	0	0	726.717397	726.8173704	0.0999734
53685.75	0.1000093	171	foods\stew_with_potatoes_and_carrots.jpg	1	2	1	stew_with_potatoes_and_carrots	1	284	TF_139	0	0	0	n/a	0	0	726.8673884	726.9673977	0.1000093
53723.25	0.0999854	172	foods\ginger_root.jpg	1	2	1	ginger_root	1	131	NF_088	1	0	0	n/a	0	0	727.0173886	727.117374	0.0999854
53760.75	0.0999906	173	foods\banana.jpg	1	2	1	banana	1	18	NF_013	1	0	0	n/a	0	0	727.1673855	727.2673761	0.0999906
53798.25	0.0999882	174	foods\avocado.jpg	1	2	1	avocado	1	9	NF_012	1	0	0	n/a	0	0	727.3173867	727.4173749	0.0999882
53835.75	0.0999901	175	non_foods\stim095_inanimate_clothing_shirt_3.png	1	2	1	shirt_3	0	264	n/a	NaN	0	0	n/a	0	0	727.4673813	727.5673714	0.0999901
53873.25	0.0999955	176	non_foods\stim116_inanimate_furniture_sofa_4.png	1	2	1	sofa_4	0	274	n/a	NaN	0	0	n/a	0	0	727.6173742	727.7173697	0.0999955
53910.75	0.100005	177	non_foods\stim128_inanimate_plants_cactus_4.png	1	2	1	cactus_4	0	52	n/a	NaN	0	0	n/a	0	0	727.7673636	727.8673686	0.100005
53948.25	0.1000173	178	non_foods\stim073_animate_mammal_monkey_1.png	1	2	1	monkey_1	0	188	n/a	NaN	0	0	n/a	0	0	727.9173705	728.0173878	0.1000173
53985.75	0.0999972	179	foods\wafer.jpg	1	2	1	wafer	1	307	TF_155	0	0	0	n/a	0	0	728.067376	728.1673732	0.0999972
54023.25	0.0999856	180	foods\asparagus.jpg	1	2	1	asparagus	1	8	NF_010	1	0	0	n/a	0	0	728.2173799	728.3173655	0.0999856
54060.75	0.0999961	181	non_foods\stim051_animate_insect_butterfly_3.png	1	2	1	butterfly_3	0	46	n/a	NaN	0	0	n/a	0	0	728.3673667	728.4673628	0.0999961
54098.25	0.0999966	182	non_foods\stim098_inanimate_clothing_socks_2.png	1	2	1	socks_2	0	268	n/a	NaN	0	0	n/a	0	0	728.5173679	728.6173645	0.0999966
54135.75	0.1000079	183	foods\corncob.jpg	1	2	1	corncob	1	93	NF_051	1	0	0	n/a	0	0	728.6673673	728.7673752	0.1000079
54173.25	0.0999951	184	non_foods\stim129_inanimate_plants_sunflower_1.png	1	2	1	sunflower_1	0	286	n/a	NaN	0	0	n/a	0	0	728.8173664	728.9173615	0.0999951
54210.75	0.0999945	185	non_foods\stim101_inanimate_furniture_bed_1.png	1	2	1	bed_1	0	19	n/a	NaN	0	0	n/a	0	0	728.9673628	729.0673573	0.0999945
54248.25	0.0999907	186	foods\parmesan_cheese.jpg	1	2	1	parmesan_cheese	1	211	TF_091	0	0	0	n/a	0	0	729.1173675	729.2173582	0.0999907
54285.75	0.1000009	187	non_foods\stim150_inanimate_tools_pan_2.png	1	2	1	pan_2	0	206	n/a	NaN	0	0	n/a	0	0	729.2673587	729.3673596	0.1000009
54323.25	0.0999849	188	non_foods\stim139_inanimate_plants_tulip_3.png	1	2	1	tulip_3	0	305	n/a	NaN	0	0	n/a	0	0	729.417358	729.5173429	0.0999849
54360.75	0.099998	189	non_foods\stim003_animate_bird_chicken_3.png	1	2	1	chicken_3	0	68	n/a	NaN	0	0	n/a	0	0	729.5673547	729.6673527	0.099998
54398.25	0.1000002	190	foods\red_cabbage.jpg	1	2	1	red_cabbage	1	245	NF_023	1	0	0	n/a	0	0	729.7173628	729.817363	0.1000002
54435.75	0.0999927	191	non_foods\stim089_inanimate_clothing_jeans_1.png	1	2	1	jeans_1	0	164	n/a	NaN	0	0	n/a	0	0	729.8673535	729.9673462	0.0999927
54473.25	0.1000001	192	non_foods\stim023_animate_human_baby_3.png	1	2	1	baby_3	0	12	n/a	NaN	0	0	n/a	0	0	730.0173506	730.1173507	0.1000001
54510.75	0.0999847	193	foods\brussel_sprouts.jpg	1	2	1	brussel_sprouts	1	35	NF_021	1	0	0	n/a	0	0	730.16736	730.2673447	0.0999847
54548.25	0.0999963	194	non_foods\stim078_animate_mammal_rhino_2.png	1	2	1	rhino_2	0	247	n/a	NaN	0	0	n/a	0	0	730.3173487	730.417345	0.0999963
54585.75	0.0999465	195	non_foods\stim075_animate_mammal_monkey_3.png	1	2	1	monkey_3	0	190	n/a	NaN	1	0	n/a	0	0	730.4673997	730.5673462	0.0999465
54623.25	0.0999947	196	non_foods\stim030_animate_human_clown_2.png	1	2	1	clown_2	0	86	n/a	NaN	0	0	n/a	0	0	730.6173445	730.7173392	0.0999947
54660.75	0.099988	197	foods\salmon.jpg	1	2	1	salmon	1	256	TF_130	0	0	1	d	0.2923172	1	730.7673509	730.8673389	0.099988
54698.25	0.0999965	198	non_foods\stim019_animate_bird_penguin_3.png	1	2	1	penguin_3	0	227	n/a	NaN	0	0	n/a	0	0	730.9173455	731.017342	0.0999965
54735.75	0.1000012	199	non_foods\stim063_animate_mammal_cow_3.png	1	2	1	cow_3	0	96	n/a	NaN	0	0	n/a	0	0	731.0673378	731.167339	0.1000012
54773.25	0.0999859	200	foods\apricot.jpg	1	2	1	apricot	1	6	NF_002	1	0	0	n/a	0	0	731.2173461	731.317332	0.0999859
54810.75	0.0999963	201	non_foods\stim060_animate_insect_grasshopper_4.png	1	2	1	grasshopper_4	0	146	n/a	NaN	0	0	n/a	0	0	731.3673367	731.467333	0.0999963
54848.25	0.1000189	202	non_foods\stim084_inanimate_clothing_gloves_4.png	1	2	1	gloves_4	0	139	n/a	NaN	0	0	n/a	0	0	731.5173364	731.6173553	0.1000189
54885.75	0.0999966	203	non_foods\stim071_animate_mammal_kangaroo_3.png	1	2	1	kangaroo_3	0	170	n/a	NaN	0	0	n/a	0	0	731.6673368	731.7673334	0.0999966
54923.25	0.0999922	204	foods\beetroots.jpg	1	2	1	beetroots	1	23	NF_015	1	0	0	n/a	0	0	731.8173393	731.9173315	0.0999922
54960.75	0.0999921	205	foods\bagel.jpg	1	2	1	bagel	1	14	TF_005	0	0	0	n/a	0	0	731.9673396	732.0673317	0.0999921
54998.25	0.0999787	206	foods\coffee_beans.jpg	1	2	1	coffee_beans	1	90	TF_029	0	0	0	n/a	0	0	732.1173386	732.2173173	0.0999787
55035.75	0.0999507	207	non_foods\stim159_inanimate_tools_wrench_3.png	1	2	1	wrench_3	0	312	n/a	NaN	0	0	n/a	0	0	732.2673724	732.3673231	0.0999507
55073.25	0.0999959	208	non_foods\stim079_animate_mammal_rhino_3.png	1	2	1	rhino_3	0	248	n/a	NaN	0	0	n/a	0	0	732.4173306	732.5173265	0.0999959
55110.75	0.0999911	209	non_foods\stim104_inanimate_furniture_bed_4.png	1	2	1	bed_4	0	22	n/a	NaN	0	0	n/a	0	0	732.5673329	732.667324	0.0999911
55148.25	0.0999911	210	foods\prawn.jpg	1	2	1	prawn	1	238	NF_041	1	0	0	n/a	0	0	732.7173327	732.8173238	0.0999911
55185.75	0.0999961	211	non_foods\stim053_animate_insect_dragonfly_1.png	1	2	1	dragonfly_1	0	106	n/a	NaN	0	0	n/a	0	0	732.8673237	732.9673198	0.0999961
55223.25	0.0999962	212	non_foods\stim145_inanimate_tools_hammer_1.png	1	2	1	hammer_1	0	151	n/a	NaN	0	0	n/a	0	0	733.0173206	733.1173168	0.0999962
55260.75	0.0999958	213	non_foods\stim009_animate_bird_parrot_1.png	1	2	1	parrot_1	0	212	n/a	NaN	0	0	n/a	0	0	733.1673215	733.2673173	0.0999958
55298.25	0.0999971	214	non_foods\stim050_animate_insect_butterfly_2.png	1	2	1	butterfly_2	0	45	n/a	NaN	0	0	n/a	0	0	733.3173198	733.4173169	0.0999971
55335.75	0.0999994	215	foods\museli_bars.jpg	1	2	1	museli_bars	1	193	TF_008	0	0	0	n/a	0	0	733.4673134	733.5673128	0.0999994
55373.25	0.0999858	216	foods\mango.jpg	1	2	1	mango	1	185	NF_054	1	0	0	n/a	0	0	733.6173277	733.7173135	0.0999858
55410.75	0.0999948	217	non_foods\stim140_inanimate_plants_tulip_4.png	1	2	1	tulip_4	0	306	n/a	NaN	0	0	n/a	0	0	733.7673145	733.8673093	0.0999948
55448.25	0.1000209	218	non_foods\stim068_animate_mammal_giraffe_4.png	1	2	1	giraffe_4	0	135	n/a	NaN	0	0	n/a	0	0	733.9173163	734.0173372	0.1000209
55485.75	0.0999663	219	non_foods\stim126_inanimate_plants_cactus_2.png	1	2	1	cactus_2	0	50	n/a	NaN	0	0	n/a	0	0	734.0673407	734.167307	0.0999663
55523.25	0.0999873	220	foods\mortadella.jpg	1	2	1	mortadella	1	192	TF_083	0	0	0	n/a	0	0	734.2173171	734.3173044	0.0999873
55560.75	0.0999975	221	non_foods\stim002_animate_bird_chicken_2.png	1	2	1	chicken_2	0	67	n/a	NaN	0	0	n/a	0	0	734.3673099	734.4673074	0.0999975
55598.25	0.0999875	222	foods\carrot.jpg	1	2	1	carrot	1	56	NF_019	1	0	0	n/a	0	0	734.5173179	734.6173054	0.0999875
55635.75	0.0999972	223	non_foods\stim022_animate_human_baby_2.png	1	2	1	baby_2	0	11	n/a	NaN	0	0	n/a	0	0	734.6673063	734.7673035	0.0999972
55673.25	0.0999877	224	foods\lollies.jpg	1	2	1	lollies	1	183	TF_026	0	0	0	n/a	0	0	734.8173158	734.9173035	0.0999877
55710.75	0.0999923	225	non_foods\stim093_inanimate_clothing_shirt_1.png	1	2	1	shirt_1	0	262	n/a	NaN	0	0	n/a	0	0	734.9673066	735.0672989	0.0999923
55748.25	0.0999728	226	foods\meatballs.jpg	1	2	1	meatballs	1	186	TF_112	0	0	0	n/a	0	0	735.1173289	735.2173017	0.0999728
55785.75	0.0999947	227	non_foods\stim138_inanimate_plants_tulip_2.png	1	2	1	tulip_2	0	304	n/a	NaN	0	0	n/a	0	0	735.2673016	735.3672963	0.0999947
55823.25	0.0999958	228	non_foods\stim114_inanimate_furniture_sofa_2.png	1	2	1	sofa_2	0	272	n/a	NaN	0	0	n/a	0	0	735.4173003	735.5172961	0.0999958
55860.75	0.0999892	229	foods\potatoes.jpg	1	2	1	potatoes	1	237	NF_071	1	0	0	n/a	0	0	735.5673074	735.6672966	0.0999892
55898.25	0.1000078	230	foods\green_olives.jpg	1	2	1	green_olives	1	148	TF_085	0	0	0	n/a	0	0	735.7173041	735.8173119	0.1000078
55935.75	0.099983	231	non_foods\stim016_animate_bird_peacock_4.png	1	2	1	peacock_4	0	222	n/a	NaN	0	0	n/a	0	0	735.8673085	735.9672915	0.099983
55973.25	0.0999772	232	foods\rice.jpg	1	2	1	rice	1	250	TF_121	0	0	0	n/a	0	0	736.0173037	736.1172809	0.0999772
56010.75	0.0999915	233	foods\lemon.jpg	1	2	1	lemon	1	175	NF_049	1	0	0	n/a	0	0	736.1672985	736.26729	0.0999915
56048.25	0.099988	234	foods\baked_cod_with_carrots_and_green_beans.jpg	1	2	1	baked_cod_with_carrots_and_green_beans	1	16	TF_082	0	0	0	n/a	0	0	736.3173027	736.4172907	0.099988
56085.75	0.0999939	235	non_foods\stim130_inanimate_plants_sunflower_2.png	1	2	1	sunflower_2	0	287	n/a	NaN	0	0	n/a	0	0	736.4672891	736.567283	0.0999939
56123.25	0.1000147	236	non_foods\stim028_animate_human_child_4.png	1	2	1	child_4	0	73	n/a	NaN	0	0	n/a	0	0	736.6172868	736.7173015	0.1000147
56160.75	0.0999878	237	foods\pear.jpg	1	2	1	pear	1	223	NF_077	1	0	0	n/a	0	0	736.7672947	736.8672825	0.0999878
56198.25	0.0999796	238	foods\chocolate_pudding.jpg	1	2	1	chocolate_pudding	1	78	TF_018	0	0	0	n/a	0	0	736.9173009	737.0172805	0.0999796
56235.75	0.099995	239	non_foods\stim156_inanimate_tools_scissors_4.png	1	2	1	scissors_4	0	261	n/a	NaN	0	0	n/a	0	0	737.0672854	737.1672804	0.099995
56273.25	0.0999935	240	non_foods\stim020_animate_bird_penguin_4.png	1	2	1	penguin_4	0	228	n/a	NaN	0	0	n/a	0	0	737.2172867	737.3172802	0.0999935
56310.75	0.0999889	241	foods\cannoli.jpg	1	2	1	cannoli	1	54	TF_022	0	0	0	n/a	0	0	737.3672857	737.4672746	0.0999889
56348.25	0.1000156	242	foods\smoked_ham.jpg	1	2	1	smoked_ham	1	266	TF_118	0	0	0	n/a	0	0	737.5172899	737.6173055	0.1000156
56385.75	0.0999714	243	foods\spring_onions.jpg	1	2	1	spring_onions	1	282	NF_086	1	0	0	n/a	0	0	737.6673022	737.7672736	0.0999714
56423.25	0.0999997	244	non_foods\stim102_inanimate_furniture_bed_2.png	1	2	1	bed_2	0	20	n/a	NaN	0	0	n/a	0	0	737.8172792	737.9172789	0.0999997
56460.75	0.0999903	245	foods\celery.jpg	1	2	1	celery	1	58	NF_092	1	0	0	n/a	0	0	737.9672828	738.0672731	0.0999903
56498.25	0.1000007	246	non_foods\stim042_animate_insect_ant_2.png	1	2	1	ant_2	0	2	n/a	NaN	0	0	n/a	0	0	738.1172715	738.2172722	0.1000007
56535.75	0.0999961	247	non_foods\stim088_inanimate_clothing_hat_4.png	1	2	1	hat_4	0	158	n/a	NaN	0	0	n/a	0	0	738.2672735	738.3672696	0.0999961
56573.25	0.0999872	248	foods\ice_cream_sandwich.jpg	1	2	1	ice_cream_sandwich	1	163	TF_061	0	0	0	n/a	0	0	738.4172776	738.5172648	0.0999872
56610.75	0.099998	249	non_foods\stim012_animate_bird_parrot_4.png	1	2	1	parrot_4	0	215	n/a	NaN	0	0	n/a	0	0	738.5672701	738.6672681	0.099998
56648.25	0.0999885	250	foods\coconut.jpg	1	2	1	coconut	1	89	NF_030	1	0	0	n/a	0	0	738.7172759	738.8172644	0.0999885
56685.75	0.0999913	251	non_foods\stim004_animate_bird_chicken_4.png	1	2	1	chicken_4	0	69	n/a	NaN	0	0	n/a	0	0	738.8672684	738.9672597	0.0999913
56723.25	0.0999931	252	non_foods\stim109_inanimate_furniture_closet_1.png	1	2	1	closet_1	0	81	n/a	NaN	0	0	n/a	0	0	739.0172695	739.1172626	0.0999931
56760.75	0.0999877	253	foods\savory_pie.jpg	1	2	1	savory_pie	1	257	TF_146	0	0	0	n/a	0	0	739.167272	739.2672597	0.0999877
56798.25	0.1000111	254	non_foods\stim142_inanimate_tools_broom_2.png	1	2	1	broom_2	0	31	n/a	NaN	0	0	n/a	0	0	739.3172633	739.4172744	0.1000111
56835.75	0.0999769	255	non_foods\stim011_animate_bird_parrot_3.png	1	2	1	parrot_3	0	214	n/a	NaN	0	0	n/a	0	0	739.4672818	739.5672587	0.0999769
56873.25	0.099986	256	foods\pancakes.jpg	1	2	1	pancakes	1	209	TF_058	0	0	0	n/a	0	0	739.6172699	739.7172559	0.099986
56910.75	0.0999914	257	foods\honey.jpg	1	2	1	honey	1	160	NF_062	1	0	0	n/a	0	0	739.7672643	739.8672557	0.0999914
56948.25	0.099995	258	foods\grapes.jpg	1	2	1	grapes	1	142	NF_098	1	0	0	n/a	0	0	739.9172623	740.0172573	0.099995
56985.75	0.0999895	259	foods\calamari.jpg	1	2	1	calamari	1	53	TF_019	0	0	0	n/a	0	0	740.0672626	740.1672521	0.0999895
57023.25	0.0999954	260	non_foods\stim092_inanimate_clothing_jeans_4.png	1	2	1	jeans_4	0	167	n/a	NaN	0	0	n/a	0	0	740.2172571	740.3172525	0.0999954
57060.75	0.099988	261	foods\bread_roll.jpg	1	2	1	bread_roll	1	27	TF_090	0	0	0	n/a	0	0	740.3672608	740.4672488	0.099988
57098.25	0.0999886	262	foods\blackberry.jpg	1	2	1	blackberry	1	24	NF_063	1	0	0	n/a	0	0	740.5172584	740.617247	0.0999886
57135.75	0.0999992	263	foods\steak.jpg	1	2	1	steak	1	283	TF_013	0	0	0	n/a	0	0	740.6672566	740.7672558	0.0999992
57173.25	0.0999897	264	foods\pepperoni_pizza.jpg	1	2	1	pepperoni_pizza	1	229	TF_106	0	0	0	n/a	0	0	740.817258	740.9172477	0.0999897
57210.75	0.0999993	265	non_foods\stim082_inanimate_clothing_gloves_2.png	1	2	1	gloves_2	0	137	n/a	NaN	0	0	n/a	0	0	740.9672474	741.0672467	0.0999993
57248.25	0.0999533	266	foods\cinnamon.jpg	1	2	1	cinnamon	1	79	NF_017	1	0	0	n/a	0	0	741.1172905	741.2172438	0.0999533
57285.75	0.0999972	267	non_foods\stim099_inanimate_clothing_socks_3.png	1	2	1	socks_3	0	269	n/a	NaN	0	0	n/a	0	0	741.2672477	741.3672449	0.0999972
57323.25	0.0999979	268	non_foods\stim113_inanimate_furniture_sofa_1.png	1	2	1	sofa_1	0	271	n/a	NaN	0	0	n/a	0	0	741.4172426	741.5172405	0.0999979
57360.75	0.0999919	269	non_foods\stim031_animate_human_clown_3.png	1	2	1	clown_3	0	87	n/a	NaN	0	0	n/a	0	0	741.5672465	741.6672384	0.0999919
57398.25	0.0999951	270	non_foods\stim108_inanimate_furniture_chair_4.png	1	2	1	chair_4	0	63	n/a	NaN	0	0	n/a	0	0	741.7172421	741.8172372	0.0999951
57435.75	0.0999933	271	non_foods\stim033_animate_human_faces_1.png	1	2	1	faces_1	0	117	n/a	NaN	0	0	n/a	0	0	741.8672415	741.9672348	0.0999933
57473.25	0.0999879	272	foods\egg.jpg	1	2	1	egg	1	115	NF_095	1	0	0	n/a	0	0	742.0172447	742.1172326	0.0999879
57510.75	0.0999992	273	foods\spaghetti_with_meat_sauce.jpg	1	2	1	spaghetti_with_meat_sauce	1	275	TF_137	0	0	0	n/a	0	0	742.1672436	742.2672428	0.0999992
57548.25	0.0999935	274	non_foods\stim110_inanimate_furniture_closet_2.png	1	2	1	closet_2	0	82	n/a	NaN	0	0	n/a	0	0	742.3172407	742.4172342	0.0999935
57585.75	0.099989	275	foods\pork_loin_with_peas.jpg	1	2	1	pork_loin_with_peas	1	234	TF_003	0	0	0	n/a	0	0	742.4672361	742.5672251	0.099989
57623.25	0.0999952	276	non_foods\stim052_animate_insect_butterfly_4.png	1	2	1	butterfly_4	0	47	n/a	NaN	0	0	n/a	0	0	742.6172337	742.7172289	0.0999952
57660.75	0.0999972	277	non_foods\stim067_animate_mammal_giraffe_3.png	1	2	1	giraffe_3	0	134	n/a	NaN	1	0	n/a	0	0	742.7672309	742.8672281	0.0999972
57698.25	0.0999749	278	non_foods\stim045_animate_insect_bug_1.png	1	2	1	bug_1	0	36	n/a	NaN	0	0	n/a	0	0	742.9172726	743.0172475	0.0999749
57735.75	0.0999978	279	foods\cereal.jpg	1	2	1	cereal	1	59	TF_028	0	0	1	d	0.4009259	1	743.0672246	743.1672224	0.0999978
57773.25	0.0999869	280	foods\apple.jpg	1	2	1	apple	1	5	NF_055	1	0	0	n/a	0	0	743.2172352	743.3172221	0.0999869
57810.75	0.0999917	281	non_foods\stim125_inanimate_plants_cactus_1.png	1	2	1	cactus_1	0	49	n/a	NaN	0	0	n/a	0	0	743.3672277	743.4672194	0.0999917
57848.25	0.0999869	282	foods\cupcake.jpg	1	2	1	cupcake	1	102	TF_050	0	0	0	n/a	0	0	743.5172332	743.6172201	0.0999869
57885.75	0.099999	283	non_foods\stim153_inanimate_tools_scissors_1.png	1	2	1	scissors_1	0	258	n/a	NaN	0	0	n/a	0	0	743.6672104	743.7672094	0.099999
57923.25	0.0999944	284	non_foods\stim119_inanimate_furniture_table_3.png	1	2	1	table_3	0	293	n/a	NaN	0	0	n/a	0	0	743.817222	743.9172164	0.0999944
57960.75	0.0999913	285	foods\cherry.jpg	1	2	1	cherry	1	64	NF_027	1	0	0	n/a	0	0	743.9672247	744.067216	0.0999913
57998.25	0.0999938	286	foods\pickles.jpg	1	2	1	pickles	1	230	TF_134	0	0	0	n/a	0	0	744.1172236	744.2172174	0.0999938
58035.75	0.0999917	287	foods\pumpkin.jpg	1	2	1	pumpkin	1	239	NF_101	1	0	0	n/a	0	0	744.2672228	744.3672145	0.0999917
58073.25	0.0999891	288	foods\peach.jpg	1	2	1	peach	1	218	NF_079	1	0	0	n/a	0	0	744.4172193	744.5172084	0.0999891
58110.75	0.0999861	289	foods\strawberry.jpg	1	2	1	strawberry	1	285	NF_037	1	0	0	n/a	0	0	744.5672185	744.6672046	0.0999861
58148.25	0.099944	290	non_foods\stim041_animate_insect_ant_1.png	1	2	1	ant_1	0	1	n/a	NaN	0	0	n/a	0	0	744.7172558	744.8171998	0.099944
58185.75	0.0999966	291	non_foods\stim090_inanimate_clothing_jeans_2.png	1	2	1	jeans_2	0	165	n/a	NaN	0	0	n/a	0	0	744.8672104	744.967207	0.0999966
58223.25	0.099987	292	non_foods\stim049_animate_insect_butterfly_1.png	1	2	1	butterfly_1	0	44	n/a	NaN	0	0	n/a	0	0	745.0172177	745.1172047	0.099987
58260.75	0.1000003	293	non_foods\stim144_inanimate_tools_broom_4.png	1	2	1	broom_4	0	33	n/a	NaN	0	0	n/a	0	0	745.1672065	745.2672068	0.1000003
58298.25	0.0999892	294	non_foods\stim080_animate_mammal_rhino_4.png	1	2	1	rhino_4	0	249	n/a	NaN	0	0	n/a	0	0	745.3172044	745.4171936	0.0999892
58335.75	0.0999971	295	foods\fruit_salad.jpg	1	2	1	fruit_salad	1	129	NF_043	1	0	0	n/a	0	0	745.4672013	745.5671984	0.0999971
58373.25	0.1000296	296	non_foods\stim070_animate_mammal_kangaroo_2.png	1	2	1	kangaroo_2	0	169	n/a	NaN	0	0	n/a	0	0	745.6172015	745.7172311	0.1000296
58410.75	0.0999999	297	non_foods\stim154_inanimate_tools_scissors_2.png	1	2	1	scissors_2	0	259	n/a	NaN	0	0	n/a	0	0	745.7671996	745.8671995	0.0999999
58448.25	0.0999889	298	foods\hamburger.jpg	1	2	1	hamburger	1	150	TF_069	0	0	0	n/a	0	0	745.9172088	746.0171977	0.0999889
58485.75	0.0999929	299	foods\raw_sausage.jpg	1	2	1	raw_sausage	1	243	TF_131	0	0	0	n/a	0	0	746.0672055	746.1671984	0.0999929
58523.25	0.099984	300	foods\roasted_chicken.jpg	1	2	1	roasted_chicken	1	253	TF_109	0	0	0	n/a	0	0	746.2172093	746.3171933	0.099984
58560.75	0.1000146	301	foods\chocolate_bar.jpg	1	2	1	chocolate_bar	1	75	TF_033	0	0	0	n/a	0	0	746.3671972	746.4672118	0.1000146
58598.25	0.0999542	302	non_foods\stim134_inanimate_plants_tree_2.png	1	2	1	tree_2	0	300	n/a	NaN	0	0	n/a	0	0	746.5172365	746.6171907	0.0999542
58635.75	0.0999781	303	foods\pea_pod.jpg	1	2	1	pea_pod	1	217	NF_082	1	0	0	n/a	0	0	746.6672029	746.767181	0.0999781
58673.25	0.0999942	304	foods\potato_chips.jpg	1	2	1	potato_chips	1	236	TF_097	0	0	0	n/a	0	0	746.8171964	746.9171906	0.0999942
58710.75	0.0999959	305	non_foods\stim055_animate_insect_dragonfly_3.png	1	2	1	dragonfly_3	0	108	n/a	NaN	0	0	n/a	0	0	746.9671913	747.0671872	0.0999959
58748.25	0.0999955	306	non_foods\stim115_inanimate_furniture_sofa_3.png	1	2	1	sofa_3	0	273	n/a	NaN	0	0	n/a	0	0	747.1171908	747.2171863	0.0999955
58785.75	0.0999964	307	non_foods\stim047_animate_insect_bug_3.png	1	2	1	bug_3	0	38	n/a	NaN	0	0	n/a	0	0	747.2671894	747.3671858	0.0999964
58823.25	0.0999941	308	non_foods\stim149_inanimate_tools_pan_1.png	1	2	1	pan_1	0	205	n/a	NaN	0	0	n/a	0	0	747.4171877	747.5171818	0.0999941
58860.75	0.0999725	309	non_foods\stim018_animate_bird_penguin_2.png	1	2	1	penguin_2	0	226	n/a	NaN	0	0	n/a	0	0	747.5672088	747.6671813	0.0999725
58898.25	0.0999806	310	foods\oven-roasted_tomatoes.jpg	1	2	1	oven-roasted_tomatoes	1	203	TF_114	0	0	0	n/a	0	0	747.717192	747.8171726	0.0999806
58935.75	0.0999884	311	foods\pomegranate.jpg	1	2	1	pomegranate	1	232	NF_058	1	0	0	n/a	0	0	747.8671895	747.9671779	0.0999884
58973.25	0.099988	312	foods\watermelon.jpg	1	2	1	watermelon	1	309	NF_005	1	0	0	n/a	0	0	748.0171894	748.1171774	0.099988
59010.75	0.1000135	313	non_foods\stim136_inanimate_plants_tree_4.png	1	2	1	tree_4	0	302	n/a	NaN	0	0	n/a	0	0	748.1671831	748.2671966	0.1000135
61835.75	0.0999916	314	non_foods\stim057_animate_insect_grasshopper_1.png	1	3	1	grasshopper_1	0	143	n/a	NaN	0	0	n/a	0	0	759.4670803	759.5670719	0.0999916
61873.25	0.0999939	315	non_foods\stim100_inanimate_clothing_socks_4.png	1	3	1	socks_4	0	270	n/a	NaN	0	0	n/a	0	0	759.6170746	759.7170685	0.0999939
61910.75	0.0999979	316	foods\raisins.jpg	1	3	1	raisins	1	241	NF_096	1	0	0	n/a	0	0	759.7670789	759.8670768	0.0999979
61948.25	0.0999999	317	foods\waffle.jpg	1	3	1	waffle	1	308	TF_030	0	0	0	n/a	0	0	759.9170763	760.0170762	0.0999999
61985.75	0.0999738	318	non_foods\stim133_inanimate_plants_tree_1.png	1	3	1	tree_1	0	299	n/a	NaN	0	0	n/a	0	0	760.0670876	760.1670614	0.0999738
62023.25	0.0999997	319	non_foods\stim042_animate_insect_ant_2.png	1	3	1	ant_2	0	2	n/a	NaN	0	0	n/a	0	0	760.2170638	760.3170635	0.0999997
62060.75	0.0999945	320	non_foods\stim114_inanimate_furniture_sofa_2.png	1	3	1	sofa_2	0	272	n/a	NaN	0	0	n/a	0	0	760.3670675	760.467062	0.0999945
62098.25	0.0999935	321	foods\garlic.jpg	1	3	1	garlic	1	130	NF_001	1	0	0	n/a	0	0	760.5170711	760.6170646	0.0999935
62135.75	0.0999787	322	non_foods\stim006_animate_bird_duck_2.png	1	3	1	duck_2	0	112	n/a	NaN	0	0	n/a	0	0	760.6670852	760.7670639	0.0999787
62173.25	0.0999901	323	foods\radish.jpg	1	3	1	radish	1	240	NF_090	1	0	0	n/a	0	0	760.8170687	760.9170588	0.0999901
62210.75	0.0999961	324	non_foods\stim119_inanimate_furniture_table_3.png	1	3	1	table_3	0	293	n/a	NaN	0	0	n/a	0	0	760.9670591	761.0670552	0.0999961
62248.25	0.0999992	325	non_foods\stim154_inanimate_tools_scissors_2.png	1	3	1	scissors_2	0	259	n/a	NaN	0	0	n/a	0	0	761.1170576	761.2170568	0.0999992
62285.75	0.0999917	326	non_foods\stim024_animate_human_baby_4.png	1	3	1	baby_4	0	13	n/a	NaN	0	0	n/a	0	0	761.2670617	761.3670534	0.0999917
62323.25	0.099997	327	non_foods\stim156_inanimate_tools_scissors_4.png	1	3	1	scissors_4	0	261	n/a	NaN	0	0	n/a	0	0	761.4170552	761.5170522	0.099997
62360.75	0.0999949	328	non_foods\stim074_animate_mammal_monkey_2.png	1	3	1	monkey_2	0	189	n/a	NaN	0	0	n/a	0	0	761.5670576	761.6670525	0.0999949
62398.25	0.1000081	329	non_foods\stim101_inanimate_furniture_bed_1.png	1	3	1	bed_1	0	19	n/a	NaN	0	0	n/a	0	0	761.7170575	761.8170656	0.1000081
62435.75	0.0999744	330	foods\licorice.jpg	1	3	1	licorice	1	179	TF_078	0	0	0	n/a	0	0	761.8670765	761.9670509	0.0999744
62473.25	0.0999909	331	non_foods\stim035_animate_human_faces_3.png	1	3	1	faces_3	0	119	n/a	NaN	0	0	n/a	0	0	762.0170566	762.1170475	0.0999909
62510.75	0.0999953	332	non_foods\stim070_animate_mammal_kangaroo_2.png	1	3	1	kangaroo_2	0	169	n/a	NaN	0	0	n/a	0	0	762.1670493	762.2670446	0.0999953
62548.25	0.1000012	333	foods\watermelon.jpg	1	3	1	watermelon	1	309	NF_005	1	0	0	n/a	0	0	762.3170555	762.4170567	0.1000012
62585.75	0.0999774	334	non_foods\stim153_inanimate_tools_scissors_1.png	1	3	1	scissors_1	0	258	n/a	NaN	0	0	n/a	0	0	762.467064	762.5670414	0.0999774
62623.25	0.0999881	335	foods\baked_cod_with_carrots_and_green_beans.jpg	1	3	1	baked_cod_with_carrots_and_green_beans	1	16	TF_082	0	1	0	n/a	0	0	762.6170519	762.71704	0.0999881
62660.75	0.0999975	336	foods\rice.jpg	1	3	1	rice	1	250	TF_121	0	0	0	n/a	0	0	762.7670539	762.8670514	0.0999975
62698.25	0.0999912	337	foods\cherry.jpg	1	3	1	cherry	1	64	NF_027	1	0	0	n/a	0	0	762.9170474	763.0170386	0.0999912
62735.75	0.0999882	338	foods\fruit_salad.jpg	1	3	1	fruit_salad	1	129	NF_043	1	0	1	d	0.5420922	1	763.0670488	763.167037	0.0999882
62773.25	0.0999934	339	non_foods\stim045_animate_insect_bug_1.png	1	3	1	bug_1	0	36	n/a	NaN	0	0	n/a	0	0	763.2170405	763.3170339	0.0999934
62810.75	0.0999899	340	foods\risotto_with_peas_and_asparagus_tips.jpg	1	3	1	risotto_with_peas_and_asparagus_tips	1	252	TF_123	0	0	0	n/a	0	0	763.3670449	763.4670348	0.0999899
62848.25	0.0999879	341	foods\pepperoni_pizza.jpg	1	3	1	pepperoni_pizza	1	229	TF_106	0	0	0	n/a	0	0	763.5170651	763.617053	0.0999879
62885.75	0.0999968	342	foods\rice_cake.jpg	1	3	1	rice_cake	1	251	TF_059	0	0	0	n/a	0	0	763.66704	763.7670368	0.0999968
62923.25	0.0999878	343	foods\hazelnuts.jpg	1	3	1	hazelnuts	1	159	NF_065	1	0	0	n/a	0	0	763.8170439	763.9170317	0.0999878
62960.75	0.0999859	344	foods\salami.jpg	1	3	1	salami	1	255	TF_127	0	0	0	n/a	0	0	763.9670407	764.0670266	0.0999859
62998.25	0.1000124	345	foods\peach.jpg	1	3	1	peach	1	218	NF_079	1	0	0	n/a	0	0	764.1170352	764.2170476	0.1000124
63035.75	0.099963	346	foods\corncob.jpg	1	3	1	corncob	1	93	NF_051	1	0	0	n/a	0	0	764.2670637	764.3670267	0.099963
63073.25	0.0999944	347	non_foods\stim111_inanimate_furniture_closet_3.png	1	3	1	closet_3	0	83	n/a	NaN	0	0	n/a	0	0	764.4170291	764.5170235	0.0999944
63110.75	0.0999978	348	non_foods\stim043_animate_insect_ant_3.png	1	3	1	ant_3	0	3	n/a	NaN	0	0	n/a	0	0	764.5670252	764.667023	0.0999978
63148.25	0.0999869	349	foods\peas.jpg	1	3	1	peas	1	224	NF_081	1	0	0	n/a	0	0	764.7170339	764.8170208	0.0999869
63185.75	0.0999882	350	non_foods\stim020_animate_bird_penguin_4.png	1	3	1	penguin_4	0	228	n/a	NaN	0	0	n/a	0	0	764.8670313	764.9670195	0.0999882
63223.25	0.0999913	351	foods\frankfurters.jpg	1	3	1	frankfurters	1	123	TF_156	0	0	0	n/a	0	0	765.0170324	765.1170237	0.0999913
63260.75	0.0999958	352	non_foods\stim041_animate_insect_ant_1.png	1	3	1	ant_1	0	1	n/a	NaN	0	0	n/a	0	0	765.1670216	765.2670174	0.0999958
63298.25	0.0999846	353	non_foods\stim099_inanimate_clothing_socks_3.png	1	3	1	socks_3	0	269	n/a	NaN	0	0	n/a	0	0	765.3170429	765.4170275	0.0999846
63335.75	0.0999953	354	non_foods\stim038_animate_human_sports_2.png	1	3	1	sports_2	0	279	n/a	NaN	0	0	n/a	0	0	765.4670196	765.5670149	0.0999953
63373.25	0.0999881	355	foods\cupcake.jpg	1	3	1	cupcake	1	102	TF_050	0	0	0	n/a	0	0	765.6170224	765.7170105	0.0999881
63410.75	0.1	356	non_foods\stim016_animate_bird_peacock_4.png	1	3	1	peacock_4	0	222	n/a	NaN	0	0	n/a	0	0	765.7670191	765.8670191	0.1
63448.25	0.1000092	357	non_foods\stim023_animate_human_baby_3.png	1	3	1	baby_3	0	12	n/a	NaN	0	0	n/a	0	0	765.9170213	766.0170305	0.1000092
63485.75	0.0999812	358	non_foods\stim019_animate_bird_penguin_3.png	1	3	1	penguin_3	0	227	n/a	NaN	0	0	n/a	0	0	766.0670243	766.1670055	0.0999812
63523.25	0.0999895	359	foods\grapes.jpg	1	3	1	grapes	1	142	NF_098	1	0	0	n/a	0	0	766.2170206	766.3170101	0.0999895
63560.75	0.0999931	360	non_foods\stim102_inanimate_furniture_bed_2.png	1	3	1	bed_2	0	20	n/a	NaN	0	0	n/a	0	0	766.3670111	766.4670042	0.0999931
63598.25	0.0999994	361	non_foods\stim056_animate_insect_dragonfly_4.png	1	3	1	dragonfly_4	0	109	n/a	NaN	0	0	n/a	0	0	766.5170082	766.6170076	0.0999994
63635.75	0.099987	362	foods\donut.jpg	1	3	1	donut	1	105	TF_032	0	0	0	n/a	0	0	766.6670157	766.7670027	0.099987
63673.25	0.099991	363	foods\lamb_chops.jpg	1	3	1	lamb_chops	1	173	TF_040	0	0	0	n/a	0	0	766.8170131	766.9170041	0.099991
63710.75	0.0999893	364	foods\potato_and_green_bean_salad.jpg	1	3	1	potato_and_green_bean_salad	1	235	TF_072	0	0	0	n/a	0	0	766.9670118	767.0670011	0.0999893
63748.25	0.0999667	365	foods\red_beans.jpg	1	3	1	red_beans	1	244	NF_033	1	0	0	n/a	0	0	767.1170344	767.2170011	0.0999667
63785.75	0.0999926	366	foods\cabbage.jpg	1	3	1	cabbage	1	48	NF_025	1	0	0	n/a	0	0	767.2670083	767.3670009	0.0999926
63823.25	0.099988	367	foods\eggplant.jpg	1	3	1	eggplant	1	116	NF_059	1	0	0	n/a	0	0	767.4170087	767.5169967	0.099988
63860.75	0.0999943	368	foods\carrot.jpg	1	3	1	carrot	1	56	NF_019	1	0	0	n/a	0	0	767.5670025	767.6669968	0.0999943
63898.25	0.1000169	369	non_foods\stim062_animate_mammal_cow_2.png	1	3	1	cow_2	0	95	n/a	NaN	0	0	n/a	0	0	767.7170067	767.8170236	0.1000169
63935.75	0.0999898	370	non_foods\stim125_inanimate_plants_cactus_1.png	1	3	1	cactus_1	0	49	n/a	NaN	0	0	n/a	0	0	767.8670029	767.9669927	0.0999898
63973.25	0.0999952	371	foods\fruit_pie.jpg	1	3	1	fruit_pie	1	128	TF_147	0	0	0	n/a	0	0	768.0169998	768.116995	0.0999952
64010.75	0.0999899	372	foods\oven-roasted_tomatoes.jpg	1	3	1	oven-roasted_tomatoes	1	203	TF_114	0	0	0	n/a	0	0	768.1669985	768.2669884	0.0999899
64048.25	0.0999967	373	non_foods\stim046_animate_insect_bug_2.png	1	3	1	bug_2	0	37	n/a	NaN	0	0	n/a	0	0	768.31699	768.4169867	0.0999967
64085.75	0.0999894	374	foods\ginger_root.jpg	1	3	1	ginger_root	1	131	NF_088	1	0	0	n/a	0	0	768.4669996	768.566989	0.0999894
64123.25	0.1000163	375	non_foods\stim131_inanimate_plants_sunflower_3.png	1	3	1	sunflower_3	0	288	n/a	NaN	0	0	n/a	0	0	768.6169872	768.7170035	0.1000163
64160.75	0.1000219	376	foods\spring_onions.jpg	1	3	1	spring_onions	1	282	NF_086	1	0	0	n/a	0	0	768.7669944	768.8670163	0.1000219
64198.25	0.0999905	377	non_foods\stim018_animate_bird_penguin_2.png	1	3	1	penguin_2	0	226	n/a	NaN	0	0	n/a	0	0	768.9169893	769.0169798	0.0999905
64235.75	0.0999905	378	foods\green_beans.jpg	1	3	1	green_beans	1	147	NF_034	1	0	0	n/a	0	0	769.0669903	769.1669808	0.0999905
64273.25	0.0999979	379	non_foods\stim013_animate_bird_peacock_1.png	1	3	1	peacock_1	0	219	n/a	NaN	0	0	n/a	0	0	769.2169839	769.3169818	0.0999979
64310.75	0.0999923	380	foods\octopus.jpg	1	3	1	octopus	1	198	TF_113	0	0	0	n/a	0	0	769.3669863	769.4669786	0.0999923
64348.25	0.0999779	381	non_foods\stim115_inanimate_furniture_sofa_3.png	1	3	1	sofa_3	0	273	n/a	NaN	0	0	n/a	0	0	769.5170163	769.6169942	0.0999779
64385.75	0.0999768	382	non_foods\stim105_inanimate_furniture_chair_1.png	1	3	1	chair_1	0	60	n/a	NaN	0	0	n/a	0	0	769.6669977	769.7669745	0.0999768
64423.25	0.0999889	383	foods\lemon_meringue_pie.jpg	1	3	1	lemon_meringue_pie	1	176	TF_151	0	0	0	n/a	0	0	769.8169852	769.9169741	0.0999889
64460.75	0.0999995	384	non_foods\stim008_animate_bird_duck_4.png	1	3	1	duck_4	0	114	n/a	NaN	0	0	n/a	0	0	769.9669751	770.0669746	0.0999995
64498.25	0.0999918	385	non_foods\stim029_animate_human_clown_1.png	1	3	1	clown_1	0	85	n/a	NaN	0	0	n/a	0	0	770.1169768	770.2169686	0.0999918
64535.75	0.0999944	386	non_foods\stim068_animate_mammal_giraffe_4.png	1	3	1	giraffe_4	0	135	n/a	NaN	0	0	n/a	0	0	770.2669739	770.3669683	0.0999944
64573.25	0.0999912	387	foods\prawn.jpg	1	3	1	prawn	1	238	NF_041	1	0	0	n/a	0	0	770.4169795	770.5169707	0.0999912
64610.75	0.1000153	388	non_foods\stim001_animate_bird_chicken_1.png	1	3	1	chicken_1	0	66	n/a	NaN	0	0	n/a	0	0	770.5669699	770.6669852	0.1000153
64648.25	0.1000002	389	non_foods\stim130_inanimate_plants_sunflower_2.png	1	3	1	sunflower_2	0	287	n/a	NaN	0	0	n/a	0	0	770.7169666	770.8169668	0.1000002
64685.75	0.0999827	390	foods\calamari.jpg	1	3	1	calamari	1	53	TF_019	0	0	0	n/a	0	0	770.8669794	770.9669621	0.0999827
64723.25	0.0999928	391	foods\broccoli.jpg	1	3	1	broccoli	1	29	NF_016	1	0	0	n/a	0	0	771.0169741	771.1169669	0.0999928
64760.75	0.1000014	392	non_foods\stim059_animate_insect_grasshopper_3.png	1	3	1	grasshopper_3	0	145	n/a	NaN	0	0	n/a	0	0	771.1669667	771.2669681	0.1000014
64798.25	0.099965	393	non_foods\stim121_inanimate_plants_bush_1.png	1	3	1	bush_1	0	40	n/a	NaN	0	0	n/a	0	0	771.3169934	771.4169584	0.099965
64835.75	0.0999801	394	foods\figs.jpg	1	3	1	figs	1	122	NF_035	1	0	0	n/a	0	0	771.4669815	771.5669616	0.0999801
64873.25	0.0999953	395	non_foods\stim147_inanimate_tools_hammer_3.png	1	3	1	hammer_3	0	153	n/a	NaN	0	0	n/a	0	0	771.6169594	771.7169547	0.0999953
64910.75	0.100003	396	non_foods\stim122_inanimate_plants_bush_2.png	1	3	1	bush_2	0	41	n/a	NaN	0	0	n/a	0	0	771.7669623	771.8669653	0.100003
64948.25	0.0999894	397	foods\hamburger.jpg	1	3	1	hamburger	1	150	TF_069	0	0	0	n/a	0	0	771.9169657	772.0169551	0.0999894
64985.75	0.0999941	398	non_foods\stim120_inanimate_furniture_table_4.png	1	3	1	table_4	0	294	n/a	NaN	0	0	n/a	0	0	772.0669574	772.1669515	0.0999941
65023.25	0.0999914	399	foods\wafer.jpg	1	3	1	wafer	1	307	TF_155	0	0	0	n/a	0	0	772.2169623	772.3169537	0.0999914
65060.75	0.0999991	400	foods\bread.jpg	1	3	1	bread	1	26	TF_089	0	0	0	n/a	0	0	772.3669624	772.4669615	0.0999991
65098.25	0.0999934	401	foods\honey.jpg	1	3	1	honey	1	160	NF_062	1	0	0	n/a	0	0	772.5169583	772.6169517	0.0999934
65135.75	0.0999928	402	foods\apricot.jpg	1	3	1	apricot	1	6	NF_002	1	0	0	n/a	0	0	772.6669576	772.7669504	0.0999928
65173.25	0.099996	403	non_foods\stim078_animate_mammal_rhino_2.png	1	3	1	rhino_2	0	247	n/a	NaN	0	0	n/a	0	0	772.8169517	772.9169477	0.099996
65210.75	0.1000182	404	non_foods\stim144_inanimate_tools_broom_4.png	1	3	1	broom_4	0	33	n/a	NaN	0	0	n/a	0	0	772.9669453	773.0669635	0.1000182
65248.25	0.0999664	405	foods\croissant.jpg	1	3	1	croissant	1	100	TF_037	0	0	0	n/a	0	0	773.1169751	773.2169415	0.0999664
65285.75	0.0999966	406	non_foods\stim091_inanimate_clothing_jeans_3.png	1	3	1	jeans_3	0	166	n/a	NaN	0	0	n/a	0	0	773.266944	773.3669406	0.0999966
65323.25	0.0999958	407	non_foods\stim132_inanimate_plants_sunflower_4.png	1	3	1	sunflower_4	0	289	n/a	NaN	0	0	n/a	0	0	773.4169463	773.5169421	0.0999958
65360.75	0.0999838	408	non_foods\stim048_animate_insect_bug_4.png	1	3	1	bug_4	0	39	n/a	NaN	0	0	n/a	0	0	773.5669423	773.6669261	0.0999838
65398.25	0.0999854	409	foods\blue_cheese.jpg	1	3	1	blue_cheese	1	25	TF_066	0	0	0	n/a	0	0	773.7169438	773.8169292	0.0999854
65435.75	0.0999915	410	foods\omelette.jpg	1	3	1	omelette	1	199	TF_057	0	0	0	n/a	0	0	773.8669449	773.9669364	0.0999915
65473.25	0.1000166	411	foods\egg.jpg	1	3	1	egg	1	115	NF_095	1	0	0	n/a	0	0	774.0169183	774.1169349	0.1000166
65510.75	0.1000017	412	non_foods\stim112_inanimate_furniture_closet_4.png	1	3	1	closet_4	0	84	n/a	NaN	0	0	n/a	0	0	774.1669438	774.2669455	0.1000017
65548.25	0.0999884	413	foods\taco.jpg	1	3	1	taco	1	295	TF_141	0	0	0	n/a	0	0	774.3169409	774.4169293	0.0999884
65585.75	0.0999908	414	foods\smoked_ham.jpg	1	3	1	smoked_ham	1	266	TF_118	0	0	0	n/a	0	0	774.4669431	774.5669339	0.0999908
65623.25	0.0999901	415	foods\oregano.jpg	1	3	1	oregano	1	202	NF_066	1	0	0	n/a	0	0	774.6169395	774.7169296	0.0999901
65660.75	0.100033	416	foods\roasted_chicken.jpg	1	3	1	roasted_chicken	1	253	TF_109	0	0	0	n/a	0	0	774.7669362	774.8669692	0.100033
65698.25	0.0999404	417	foods\gnocchi.jpg	1	3	1	gnocchi	1	140	TF_064	0	0	0	n/a	0	0	774.9169897	775.0169301	0.0999404
65735.75	0.0999922	418	non_foods\stim022_animate_human_baby_2.png	1	3	1	baby_2	0	11	n/a	NaN	0	0	n/a	0	0	775.0669325	775.1669247	0.0999922
65773.25	0.0999893	419	foods\cooked_prawn.jpg	1	3	1	cooked_prawn	1	92	TF_060	0	0	0	n/a	0	0	775.2169373	775.3169266	0.0999893
65810.75	0.0999981	420	non_foods\stim149_inanimate_tools_pan_1.png	1	3	1	pan_1	0	205	n/a	NaN	0	0	n/a	0	0	775.3669256	775.4669237	0.0999981
65848.25	0.0999965	421	non_foods\stim071_animate_mammal_kangaroo_3.png	1	3	1	kangaroo_3	0	170	n/a	NaN	0	0	n/a	0	0	775.5169229	775.6169194	0.0999965
65885.75	0.0999997	422	non_foods\stim146_inanimate_tools_hammer_2.png	1	3	1	hammer_2	0	152	n/a	NaN	0	0	n/a	0	0	775.666922	775.7669217	0.0999997
65923.25	0.0999974	423	non_foods\stim058_animate_insect_grasshopper_2.png	1	3	1	grasshopper_2	0	144	n/a	NaN	0	0	n/a	0	0	775.8169217	775.9169191	0.0999974
65960.75	0.100013	424	non_foods\stim157_inanimate_tools_wrench_1.png	1	3	1	wrench_1	0	310	n/a	NaN	0	0	n/a	0	0	775.9669198	776.0669328	0.100013
65998.25	0.0999975	425	non_foods\stim155_inanimate_tools_scissors_3.png	1	3	1	scissors_3	0	260	n/a	NaN	0	0	n/a	0	0	776.1169192	776.2169167	0.0999975
66035.75	0.0999867	426	foods\cauliflower.jpg	1	3	1	cauliflower	1	57	NF_022	1	0	0	n/a	0	0	776.2669261	776.3669128	0.0999867
66073.25	0.0999966	427	non_foods\stim064_animate_mammal_cow_4.png	1	3	1	cow_4	0	97	n/a	NaN	0	0	n/a	0	0	776.4169195	776.5169161	0.0999966
66110.75	0.1000145	428	non_foods\stim027_animate_human_child_3.png	1	3	1	child_3	0	72	n/a	NaN	0	0	n/a	0	0	776.5669155	776.66693	0.1000145
66148.25	0.0999787	429	non_foods\stim151_inanimate_tools_pan_3.png	1	3	1	pan_3	0	207	n/a	NaN	0	0	n/a	0	0	776.7169368	776.8169155	0.0999787
66185.75	0.0999842	430	non_foods\stim073_animate_mammal_monkey_1.png	1	3	1	monkey_1	0	188	n/a	NaN	0	0	n/a	0	0	776.8669242	776.9669084	0.0999842
66223.25	0.0999966	431	non_foods\stim015_animate_bird_peacock_3.png	1	3	1	peacock_3	0	221	n/a	NaN	0	0	n/a	0	0	777.016913	777.1169096	0.0999966
66260.75	0.0999875	432	foods\grapefruits.jpg	1	3	1	grapefruits	1	141	NF_085	1	0	0	n/a	0	0	777.1669168	777.2669043	0.0999875
66298.25	0.0999957	433	non_foods\stim129_inanimate_plants_sunflower_1.png	1	3	1	sunflower_1	0	286	n/a	NaN	0	0	n/a	0	0	777.3169099	777.4169056	0.0999957
66335.75	0.1000018	434	non_foods\stim055_animate_insect_dragonfly_3.png	1	3	1	dragonfly_3	0	108	n/a	NaN	0	0	n/a	0	0	777.4669051	777.5669069	0.1000018
66373.25	0.0999948	435	non_foods\stim136_inanimate_plants_tree_4.png	1	3	1	tree_4	0	302	n/a	NaN	0	0	n/a	0	0	777.6169076	777.7169024	0.0999948
66410.75	0.1000006	436	non_foods\stim106_inanimate_furniture_chair_2.png	1	3	1	chair_2	0	61	n/a	NaN	0	0	n/a	0	0	777.7669198	777.8669204	0.1000006
66448.25	0.0999984	437	non_foods\stim039_animate_human_sports_3.png	1	3	1	sports_3	0	280	n/a	NaN	0	0	n/a	0	0	777.9169016	778.0169	0.0999984
66485.75	0.0999931	438	non_foods\stim109_inanimate_furniture_closet_1.png	1	3	1	closet_1	0	81	n/a	NaN	0	0	n/a	0	0	778.0669054	778.1668985	0.0999931
66523.25	0.0999991	439	non_foods\stim124_inanimate_plants_bush_4.png	1	3	1	bush_4	0	43	n/a	NaN	0	0	n/a	0	0	778.2169005	778.3168996	0.0999991
66560.75	0.1000048	440	foods\lentils.jpg	1	3	1	lentils	1	177	NF_047	1	0	0	n/a	0	0	778.3669097	778.4669145	0.1000048
66598.25	0.099993	441	foods\fried_zucchini.jpg	1	3	1	fried_zucchini	1	125	TF_159	0	1	0	n/a	0	0	778.5169062	778.6168992	0.099993
66635.75	0.0999955	442	non_foods\stim117_inanimate_furniture_table_1.png	1	3	1	table_1	0	291	n/a	NaN	0	0	n/a	0	0	778.6668882	778.7668837	0.0999955
66673.25	0.0999989	443	non_foods\stim084_inanimate_clothing_gloves_4.png	1	3	1	gloves_4	0	139	n/a	NaN	0	1	d	0.3921457	1	778.8168866	778.9168855	0.0999989
66710.75	0.1000201	444	foods\nectarine.jpg	1	3	1	nectarine	1	196	NF_078	1	0	0	n/a	0	0	778.9668902	779.0669103	0.1000201
66748.25	0.0999947	445	non_foods\stim066_animate_mammal_giraffe_2.png	1	3	1	giraffe_2	0	133	n/a	NaN	0	0	n/a	0	0	779.116895	779.2168897	0.0999947
66785.75	0.0999677	446	non_foods\stim060_animate_insect_grasshopper_4.png	1	3	1	grasshopper_4	0	146	n/a	NaN	0	0	n/a	0	0	779.2668877	779.3668554	0.0999677
66823.25	0.1000023	447	non_foods\stim040_animate_human_sports_4.png	1	3	1	sports_4	0	281	n/a	NaN	0	0	n/a	0	0	779.4168861	779.5168884	0.1000023
66860.75	0.0999807	448	non_foods\stim077_animate_mammal_rhino_1.png	1	3	1	rhino_1	0	246	n/a	NaN	0	0	n/a	0	0	779.5669018	779.6668825	0.0999807
66898.25	0.0999882	449	foods\stew_with_potatoes_and_carrots.jpg	1	3	1	stew_with_potatoes_and_carrots	1	284	TF_139	0	0	0	n/a	0	0	779.7168922	779.8168804	0.0999882
66935.75	0.0999858	450	foods\mandarin.jpg	1	3	1	mandarin	1	184	NF_052	1	0	0	n/a	0	0	779.866899	779.9668848	0.0999858
66973.25	0.0999914	451	foods\raw_sausage.jpg	1	3	1	raw_sausage	1	243	TF_131	0	0	0	n/a	0	0	780.0168912	780.1168826	0.0999914
67010.75	0.1000199	452	non_foods\stim145_inanimate_tools_hammer_1.png	1	3	1	hammer_1	0	151	n/a	NaN	0	0	n/a	0	0	780.1668827	780.2669026	0.1000199
67048.25	0.0999863	453	foods\toast.jpg	1	3	1	toast	1	296	TF_053	0	0	0	n/a	0	0	780.3168901	780.4168764	0.0999863
67085.75	0.0999884	454	foods\baked_lamb_with_potatoes.jpg	1	3	1	baked_lamb_with_potatoes	1	17	TF_001	0	0	0	n/a	0	0	780.4668851	780.5668735	0.0999884
67123.25	0.0999918	455	foods\pancakes.jpg	1	3	1	pancakes	1	209	TF_058	0	0	0	n/a	0	0	780.6168849	780.7168767	0.0999918
67160.75	0.1000065	456	non_foods\stim083_inanimate_clothing_gloves_3.png	1	3	1	gloves_3	0	138	n/a	NaN	0	0	n/a	0	0	780.7668785	780.866885	0.1000065
67198.25	0.0999967	457	non_foods\stim116_inanimate_furniture_sofa_4.png	1	3	1	sofa_4	0	274	n/a	NaN	0	0	n/a	0	0	780.9168744	781.0168711	0.0999967
67235.75	0.0999951	458	non_foods\stim065_animate_mammal_giraffe_1.png	1	3	1	giraffe_1	0	132	n/a	NaN	0	0	n/a	0	0	781.0668747	781.1668698	0.0999951
67273.25	0.1000188	459	non_foods\stim052_animate_insect_butterfly_4.png	1	3	1	butterfly_4	0	47	n/a	NaN	0	0	n/a	0	0	781.2168724	781.3168912	0.1000188
67310.75	0.0999912	460	foods\linguine_with_clams.jpg	1	3	1	linguine_with_clams	1	181	TF_077	0	0	0	n/a	0	0	781.3668766	781.4668678	0.0999912
67348.25	0.0999923	461	foods\toasted_bread_with_tomatoes.jpg	1	3	1	toasted_bread_with_tomatoes	1	297	TF_017	0	0	0	n/a	0	0	781.5168763	781.6168686	0.0999923
67385.75	0.0999904	462	foods\swordfish.jpg	1	3	1	swordfish	1	290	TF_101	0	0	0	n/a	0	0	781.6668734	781.7668638	0.0999904
67423.25	0.1000073	463	non_foods\stim079_animate_mammal_rhino_3.png	1	3	1	rhino_3	0	248	n/a	NaN	0	0	n/a	0	0	781.8168688	781.9168761	0.1000073
67460.75	0.099969	464	foods\cannoli.jpg	1	3	1	cannoli	1	54	TF_022	0	0	0	n/a	0	0	781.9668966	782.0668656	0.099969
67498.25	0.0999996	465	non_foods\stim143_inanimate_tools_broom_3.png	1	3	1	broom_3	0	32	n/a	NaN	0	0	n/a	0	0	782.1168631	782.2168627	0.0999996
67535.75	0.0999931	466	non_foods\stim081_inanimate_clothing_gloves_1.png	1	3	1	gloves_1	0	136	n/a	NaN	0	0	n/a	0	0	782.2668687	782.3668618	0.0999931
67573.25	0.0999927	467	foods\strawberry.jpg	1	3	1	strawberry	1	285	NF_037	1	0	0	n/a	0	0	782.4168669	782.5168596	0.0999927
67610.75	0.0999954	468	non_foods\stim087_inanimate_clothing_hat_3.png	1	3	1	hat_3	0	157	n/a	NaN	0	0	n/a	0	0	782.5668613	782.6668567	0.0999954
67648.25	0.0999919	469	non_foods\stim090_inanimate_clothing_jeans_2.png	1	3	1	jeans_2	0	165	n/a	NaN	0	0	n/a	0	0	782.7168616	782.8168535	0.0999919
67685.75	0.0999825	470	foods\meatballs.jpg	1	3	1	meatballs	1	186	TF_112	0	0	0	n/a	0	0	782.8668701	782.9668526	0.0999825
69873.25	0.0999896	471	non_foods\stim094_inanimate_clothing_shirt_2.png	1	4	1	shirt_2	0	263	n/a	NaN	0	0	n/a	0	0	791.6167872	791.7167768	0.0999896
69910.75	0.0999874	472	foods\capsicum.jpg	1	4	1	capsicum	1	55	NF_076	1	0	0	n/a	0	0	791.7667827	791.8667701	0.0999874
69948.25	0.0999901	473	foods\apple.jpg	1	4	1	apple	1	5	NF_055	1	0	0	n/a	0	0	791.9167823	792.0167724	0.0999901
69985.75	0.0999879	474	foods\chestnut.jpg	1	4	1	chestnut	1	65	NF_020	1	0	0	n/a	0	0	792.0667819	792.1667698	0.0999879
70023.25	0.0999853	475	non_foods\stim021_animate_human_baby_1.png	1	4	1	baby_1	0	10	n/a	NaN	0	0	n/a	0	0	792.2167739	792.3167592	0.0999853
70060.75	0.0999963	476	non_foods\stim007_animate_bird_duck_3.png	1	4	1	duck_3	0	113	n/a	NaN	0	0	n/a	0	0	792.3667714	792.4667677	0.0999963
70098.25	0.0999974	477	non_foods\stim134_inanimate_plants_tree_2.png	1	4	1	tree_2	0	300	n/a	NaN	0	0	n/a	0	0	792.5167716	792.616769	0.0999974
70135.75	0.1000134	478	foods\kiwi.jpg	1	4	1	kiwi	1	172	NF_044	1	0	0	n/a	0	0	792.6667749	792.7667883	0.1000134
70173.25	0.0999655	479	foods\ice_cream_sandwich.jpg	1	4	1	ice_cream_sandwich	1	163	TF_061	0	0	0	n/a	0	0	792.8167969	792.9167624	0.0999655
70210.75	0.1000019	480	non_foods\stim082_inanimate_clothing_gloves_2.png	1	4	1	gloves_2	0	137	n/a	NaN	0	0	n/a	0	0	792.9667593	793.0667612	0.1000019
70248.25	0.0999845	481	foods\minestrone_soup.jpg	1	4	1	minestrone_soup	1	187	TF_160	0	0	0	n/a	0	0	793.1167735	793.216758	0.0999845
70285.75	0.099996	482	non_foods\stim067_animate_mammal_giraffe_3.png	1	4	1	giraffe_3	0	134	n/a	NaN	0	0	n/a	0	0	793.2667647	793.3667607	0.099996
70323.25	0.0999938	483	foods\raw_ham.jpg	1	4	1	raw_ham	1	242	TF_117	0	0	0	n/a	0	0	793.4167642	793.516758	0.0999938
70360.75	0.0999833	484	foods\cinnamon.jpg	1	4	1	cinnamon	1	79	NF_017	1	0	0	n/a	0	0	793.5667676	793.6667509	0.0999833
70398.25	0.0999899	485	foods\blackberry.jpg	1	4	1	blackberry	1	24	NF_063	1	0	0	n/a	0	0	793.7167676	793.8167575	0.0999899
70435.75	0.0999668	486	non_foods\stim110_inanimate_furniture_closet_2.png	1	4	1	closet_2	0	82	n/a	NaN	0	0	n/a	0	0	793.8667827	793.9667495	0.0999668
70473.25	0.099985	487	non_foods\stim036_animate_human_faces_4.png	1	4	1	faces_4	0	120	n/a	NaN	0	0	n/a	0	0	794.016769	794.116754	0.099985
70510.75	0.0999888	488	foods\coffee_beans.jpg	1	4	1	coffee_beans	1	90	TF_029	0	0	0	n/a	0	0	794.1667633	794.2667521	0.0999888
70548.25	0.0999992	489	non_foods\stim010_animate_bird_parrot_2.png	1	4	1	parrot_2	0	213	n/a	NaN	0	0	n/a	0	0	794.3167523	794.4167515	0.0999992
70585.75	0.100003	490	foods\lollies.jpg	1	4	1	lollies	1	183	TF_026	0	0	0	n/a	0	0	794.4667606	794.5667636	0.100003
70623.25	0.0999683	491	foods\asparagus.jpg	1	4	1	asparagus	1	8	NF_010	1	0	0	n/a	0	0	794.6167777	794.716746	0.0999683
70660.75	0.099998	492	non_foods\stim107_inanimate_furniture_chair_3.png	1	4	1	chair_3	0	62	n/a	NaN	0	0	n/a	0	0	794.7667498	794.8667478	0.099998
70698.25	0.0999887	493	foods\spinach.jpg	1	4	1	spinach	1	277	NF_094	1	0	0	n/a	0	0	794.9167554	795.0167441	0.0999887
70735.75	0.0999902	494	foods\lemon.jpg	1	4	1	lemon	1	175	NF_049	1	0	0	n/a	0	0	795.0667502	795.1667404	0.0999902
70773.25	0.0999971	495	non_foods\stim061_animate_mammal_cow_1.png	1	4	1	cow_1	0	94	n/a	NaN	0	0	n/a	0	0	795.2167455	795.3167426	0.0999971
70810.75	0.0999892	496	foods\pasta_carbonara.jpg	1	4	1	pasta_carbonara	1	216	TF_027	0	1	0	n/a	0	0	795.3667423	795.4667315	0.0999892
70848.25	0.1000133	497	foods\chocolate_pralines.jpg	1	4	1	chocolate_pralines	1	77	TF_035	0	0	0	n/a	0	0	795.516751	795.6167643	0.1000133
70885.75	0.099981	498	non_foods\stim075_animate_mammal_monkey_3.png	1	4	1	monkey_3	0	190	n/a	NaN	0	0	n/a	0	0	795.6667574	795.7667384	0.099981
70923.25	0.0999879	499	foods\chocolate_pudding.jpg	1	4	1	chocolate_pudding	1	78	TF_018	0	0	1	d	0.5420957	1	795.8167462	795.9167341	0.0999879
70960.75	0.1000005	500	non_foods\stim004_animate_bird_chicken_4.png	1	4	1	chicken_4	0	69	n/a	NaN	0	0	n/a	0	0	795.9667382	796.0667387	0.1000005
70998.25	0.1	501	non_foods\stim030_animate_human_clown_2.png	1	4	1	clown_2	0	86	n/a	NaN	0	0	n/a	0	0	796.1167361	796.2167361	0.1
71035.75	0.1000148	502	foods\red_cabbage.jpg	1	4	1	red_cabbage	1	245	NF_023	1	0	0	n/a	0	0	796.2667422	796.366757	0.1000148
71073.25	0.0999937	503	non_foods\stim103_inanimate_furniture_bed_3.png	1	4	1	bed_3	0	21	n/a	NaN	0	0	n/a	0	0	796.4167395	796.5167332	0.0999937
71110.75	0.0999813	504	foods\mussels.jpg	1	4	1	mussels	1	195	TF_042	0	0	0	n/a	0	0	796.5667391	796.6667204	0.0999813
71148.25	0.0999823	505	foods\celery.jpg	1	4	1	celery	1	58	NF_092	1	0	0	n/a	0	0	796.7167359	796.8167182	0.0999823
71185.75	0.0999878	506	foods\grilled_chicken_breast.jpg	1	4	1	grilled_chicken_breast	1	149	TF_104	0	0	0	n/a	0	0	796.866738	796.9667258	0.0999878
71223.25	0.0999962	507	foods\chilli.jpg	1	4	1	chilli	1	74	NF_073	1	0	0	n/a	0	0	797.016729	797.1167252	0.0999962
71260.75	0.0999951	508	non_foods\stim128_inanimate_plants_cactus_4.png	1	4	1	cactus_4	0	52	n/a	NaN	0	0	n/a	0	0	797.1667307	797.2667258	0.0999951
71298.25	0.0999914	509	foods\baguette.jpg	1	4	1	baguette	1	15	TF_006	0	0	0	n/a	0	0	797.3167321	797.4167235	0.0999914
71335.75	0.099981	510	foods\fried_calamari.jpg	1	4	1	fried_calamari	1	124	TF_020	0	0	0	n/a	0	0	797.4667295	797.5667105	0.099981
71373.25	0.0999902	511	non_foods\stim126_inanimate_plants_cactus_2.png	1	4	1	cactus_2	0	50	n/a	NaN	0	0	n/a	0	0	797.6167293	797.7167195	0.0999902
71410.75	0.0999899	512	foods\dates.jpg	1	4	1	dates	1	104	NF_032	1	0	0	n/a	0	0	797.7667291	797.866719	0.0999899
71448.25	0.0999963	513	foods\cereal.jpg	1	4	1	cereal	1	59	TF_028	0	0	0	n/a	0	0	797.9167226	798.0167189	0.0999963
71485.75	0.1000112	514	non_foods\stim012_animate_bird_parrot_4.png	1	4	1	parrot_4	0	215	n/a	NaN	0	0	n/a	0	0	798.0667185	798.1667297	0.1000112
71523.25	0.0999984	515	non_foods\stim026_animate_human_child_2.png	1	4	1	child_2	0	71	n/a	NaN	0	0	n/a	0	0	798.2167162	798.3167146	0.0999984
71560.75	0.0999961	516	non_foods\stim063_animate_mammal_cow_3.png	1	4	1	cow_3	0	96	n/a	NaN	0	0	n/a	0	0	798.3667196	798.4667157	0.0999961
71598.25	0.100004	517	non_foods\stim009_animate_bird_parrot_1.png	1	4	1	parrot_1	0	212	n/a	NaN	0	0	n/a	0	0	798.5167122	798.6167162	0.100004
71635.75	0.0999909	518	foods\mango.jpg	1	4	1	mango	1	185	NF_054	1	0	0	n/a	0	0	798.6667221	798.766713	0.0999909
71673.25	0.0999835	519	non_foods\stim005_animate_bird_duck_1.png	1	4	1	duck_1	0	111	n/a	NaN	0	0	n/a	0	0	798.8167146	798.9166981	0.0999835
71710.75	0.0999964	520	foods\fries.jpg	1	4	1	fries	1	126	TF_094	0	0	0	n/a	0	0	798.9667077	799.0667041	0.0999964
71748.25	0.1000106	521	foods\cooked_ham.jpg	1	4	1	cooked_ham	1	91	TF_116	0	0	0	n/a	0	0	799.1167157	799.2167263	0.1000106
71785.75	0.0999862	522	foods\bread_roll.jpg	1	4	1	bread_roll	1	27	TF_090	0	0	0	n/a	0	0	799.2667169	799.3667031	0.0999862
71823.25	0.1000034	523	non_foods\stim152_inanimate_tools_pan_4.png	1	4	1	pan_4	0	208	n/a	NaN	0	0	n/a	0	0	799.4167051	799.5167085	0.1000034
71860.75	0.0999886	524	foods\pork_and_rice.jpg	1	4	1	pork_and_rice	1	233	TF_080	0	0	0	n/a	0	0	799.5667145	799.6667031	0.0999886
71898.25	0.0999926	525	foods\lobster.jpg	1	4	1	lobster	1	182	NF_007	1	0	0	n/a	0	0	799.7167094	799.816702	0.0999926
71935.75	0.0999639	526	non_foods\stim025_animate_human_child_1.png	1	4	1	child_1	0	70	n/a	NaN	0	0	n/a	0	0	799.8667341	799.966698	0.0999639
71973.25	0.0999839	527	foods\banana.jpg	1	4	1	banana	1	18	NF_013	1	1	0	n/a	0	0	800.0167125	800.1166964	0.0999839
72010.75	0.099986	528	foods\dried_figs.jpg	1	4	1	dried_figs	1	110	TF_054	0	0	0	n/a	0	0	800.1667092	800.2666952	0.099986
72048.25	0.0999914	529	non_foods\stim096_inanimate_clothing_shirt_4.png	1	4	1	shirt_4	0	265	n/a	NaN	0	1	d	0.2922807	1	800.3167044	800.4166958	0.0999914
72085.75	0.0999887	530	foods\lasagna.jpg	1	4	1	lasagna	1	174	TF_076	0	0	0	n/a	0	0	800.4667027	800.5666914	0.0999887
72123.25	0.0999855	531	foods\tomato.jpg	1	4	1	tomato	1	298	NF_084	1	0	0	n/a	0	0	800.616707	800.7166925	0.0999855
72160.75	0.099983	532	foods\cuttlefish.jpg	1	4	1	cuttlefish	1	103	NF_093	1	0	0	n/a	0	0	800.7667082	800.8666912	0.099983
72198.25	0.1000172	533	foods\chocolate_chip_cookies.jpg	1	4	1	chocolate_chip_cookies	1	76	TF_010	0	0	0	n/a	0	0	800.9167001	801.0167173	0.1000172
72235.75	0.0999906	534	foods\papaya.jpg	1	4	1	papaya	1	210	NF_069	1	0	0	n/a	0	0	801.0666999	801.1666905	0.0999906
72273.25	0.0999706	535	non_foods\stim088_inanimate_clothing_hat_4.png	1	4	1	hat_4	0	158	n/a	NaN	0	0	n/a	0	0	801.2167145	801.3166851	0.0999706
72310.75	0.0999913	536	foods\fennel.jpg	1	4	1	fennel	1	121	NF_036	1	0	0	n/a	0	0	801.3666952	801.4666865	0.0999913
72348.25	0.1000223	537	non_foods\stim148_inanimate_tools_hammer_4.png	1	4	1	hammer_4	0	154	n/a	NaN	0	0	n/a	0	0	801.5166876	801.6167099	0.1000223
72385.75	0.0999542	538	foods\spaghetti_with_olives_and_capers.jpg	1	4	1	spaghetti_with_olives_and_capers	1	276	TF_135	0	0	0	n/a	0	0	801.6667369	801.7666911	0.0999542
72423.25	0.0999869	539	foods\bagel.jpg	1	4	1	bagel	1	14	TF_005	0	0	0	n/a	0	0	801.8166968	801.9166837	0.0999869
72460.75	0.0999859	540	foods\hotdog.jpg	1	4	1	hotdog	1	161	TF_070	0	0	0	n/a	0	0	801.9666918	802.0666777	0.0999859
72498.25	0.09999	541	foods\ice_cream.jpg	1	4	1	ice_cream	1	162	TF_062	0	0	0	n/a	0	0	802.1166897	802.2166797	0.09999
72535.75	0.099991	542	non_foods\stim051_animate_insect_butterfly_3.png	1	4	1	butterfly_3	0	46	n/a	NaN	0	0	n/a	0	0	802.2666796	802.3666706	0.099991
72573.25	0.0999949	543	non_foods\stim028_animate_human_child_4.png	1	4	1	child_4	0	73	n/a	NaN	0	0	n/a	0	0	802.4166812	802.5166761	0.0999949
72610.75	0.099993	544	foods\rockmelon.jpg	1	4	1	rockmelon	1	254	NF_060	1	0	0	n/a	0	0	802.5666852	802.6666782	0.099993
72648.25	0.0999979	545	non_foods\stim076_animate_mammal_monkey_4.png	1	4	1	monkey_4	0	191	n/a	NaN	0	0	n/a	0	0	802.7166775	802.8166754	0.0999979
72685.75	0.099998	546	non_foods\stim160_inanimate_tools_wrench_4.png	1	4	1	wrench_4	0	313	n/a	NaN	0	0	n/a	0	0	802.8666731	802.9666711	0.099998
72723.25	0.0999943	547	non_foods\stim098_inanimate_clothing_socks_2.png	1	4	1	socks_2	0	268	n/a	NaN	0	0	n/a	0	0	803.0166775	803.1166718	0.0999943
72760.75	0.099985	548	foods\savory_pie.jpg	1	4	1	savory_pie	1	257	TF_146	0	0	0	n/a	0	0	803.1666822	803.2666672	0.099985
72798.25	0.1000327	549	non_foods\stim138_inanimate_plants_tulip_2.png	1	4	1	tulip_2	0	304	n/a	NaN	0	0	n/a	0	0	803.3166698	803.4167025	0.1000327
72835.75	0.0999626	550	non_foods\stim069_animate_mammal_kangaroo_1.png	1	4	1	kangaroo_1	0	168	n/a	NaN	0	0	n/a	0	0	803.4667017	803.5666643	0.0999626
72873.25	0.099979	551	foods\coconut.jpg	1	4	1	coconut	1	89	NF_030	1	0	0	n/a	0	0	803.616684	803.716663	0.099979
72910.75	0.0999926	552	non_foods\stim118_inanimate_furniture_table_2.png	1	4	1	table_2	0	292	n/a	NaN	0	0	n/a	0	0	803.7666692	803.8666618	0.0999926
72948.25	0.0999886	553	foods\brie.jpg	1	4	1	brie	1	28	TF_016	0	0	0	n/a	0	0	803.9166767	804.0166653	0.0999886
72985.75	0.100008	554	non_foods\stim011_animate_bird_parrot_3.png	1	4	1	parrot_3	0	214	n/a	NaN	0	0	n/a	0	0	804.0666558	804.1666638	0.100008
73023.25	0.0999944	555	non_foods\stim113_inanimate_furniture_sofa_1.png	1	4	1	sofa_1	0	271	n/a	NaN	0	0	n/a	0	0	804.2166651	804.3166595	0.0999944
73060.75	0.0999892	556	foods\pomegranate.jpg	1	4	1	pomegranate	1	232	NF_058	1	0	0	n/a	0	0	804.3666689	804.4666581	0.0999892
73098.25	0.1000031	557	non_foods\stim044_animate_insect_ant_4.png	1	4	1	ant_4	0	4	n/a	NaN	0	0	n/a	0	0	804.5166606	804.6166637	0.1000031
73135.75	0.0999933	558	non_foods\stim097_inanimate_clothing_socks_1.png	1	4	1	socks_1	0	267	n/a	NaN	0	0	n/a	0	0	804.6666626	804.7666559	0.0999933
73173.25	0.0999963	559	non_foods\stim072_animate_mammal_kangaroo_4.png	1	4	1	kangaroo_4	0	171	n/a	NaN	0	0	n/a	0	0	804.8166573	804.9166536	0.0999963
73210.75	0.0999942	560	non_foods\stim053_animate_insect_dragonfly_1.png	1	4	1	dragonfly_1	0	106	n/a	NaN	0	0	n/a	0	0	804.9666585	805.0666527	0.0999942
73248.25	0.1000324	561	foods\cinnamon_sroll.jpg	1	4	1	cinnamon_sroll	1	80	TF_021	0	0	0	n/a	0	0	805.1166609	805.2166933	0.1000324
73285.75	0.0999843	562	foods\cucumber.jpg	1	4	1	cucumber	1	101	NF_026	1	0	0	n/a	0	0	805.2666673	805.3666516	0.0999843
73323.25	0.0999875	563	foods\pork_loin_with_peas.jpg	1	4	1	pork_loin_with_peas	1	234	TF_003	0	0	0	n/a	0	0	805.4166606	805.5166481	0.0999875
73360.75	0.0999965	564	non_foods\stim092_inanimate_clothing_jeans_4.png	1	4	1	jeans_4	0	167	n/a	NaN	0	0	n/a	0	0	805.56665	805.6666465	0.0999965
73398.25	0.0999901	565	foods\brussel_sprouts.jpg	1	4	1	brussel_sprouts	1	35	NF_021	1	0	0	n/a	0	0	805.7166585	805.8166486	0.0999901
73435.75	0.099999	566	foods\chocolate_bar.jpg	1	4	1	chocolate_bar	1	75	TF_033	0	0	0	n/a	0	0	805.8666457	805.9666447	0.099999
73473.25	0.0999915	567	foods\nougat.jpg	1	4	1	nougat	1	197	TF_144	0	0	0	n/a	0	0	806.0166524	806.1166439	0.0999915
73510.75	0.0999971	568	foods\potato_chips.jpg	1	4	1	potato_chips	1	236	TF_097	0	0	0	n/a	0	0	806.1666447	806.2666418	0.0999971
73548.25	0.0999808	569	non_foods\stim033_animate_human_faces_1.png	1	4	1	faces_1	0	117	n/a	NaN	0	0	n/a	0	0	806.3166615	806.4166423	0.0999808
73585.75	0.0999918	570	foods\brownie.jpg	1	4	1	brownie	1	34	TF_011	0	0	0	n/a	0	0	806.4666475	806.5666393	0.0999918
73623.25	0.0999853	571	non_foods\stim003_animate_bird_chicken_3.png	1	4	1	chicken_3	0	68	n/a	NaN	0	0	n/a	0	0	806.6166516	806.7166369	0.0999853
73660.75	0.0999898	572	foods\fruit_flan.jpg	1	4	1	fruit_flan	1	127	TF_093	0	0	0	n/a	0	0	806.7666471	806.8666369	0.0999898
73698.25	0.1000175	573	non_foods\stim031_animate_human_clown_3.png	1	4	1	clown_3	0	87	n/a	NaN	0	0	n/a	0	0	806.9166503	807.0166678	0.1000175
73735.75	0.099988	574	foods\avocado.jpg	1	4	1	avocado	1	9	NF_012	1	1	0	n/a	0	0	807.0666442	807.1666322	0.099988
73773.25	0.0999878	575	foods\beetroots.jpg	1	4	1	beetroots	1	23	NF_015	1	0	0	n/a	0	0	807.2166438	807.3166316	0.0999878
73810.75	0.0999894	576	non_foods\stim049_animate_insect_butterfly_1.png	1	4	1	butterfly_1	0	44	n/a	NaN	0	1	d	0.3920883	1	807.3666426	807.466632	0.0999894
73848.25	0.0999946	577	foods\spaghetti_with_meat_sauce.jpg	1	4	1	spaghetti_with_meat_sauce	1	275	TF_137	0	0	0	n/a	0	0	807.5166414	807.616636	0.0999946
73885.75	0.0999859	578	foods\mushroom.jpg	1	4	1	mushroom	1	194	NF_039	1	0	0	n/a	0	0	807.6666402	807.7666261	0.0999859
73923.25	0.0999861	579	foods\onion.jpg	1	4	1	onion	1	200	NF_029	1	0	0	n/a	0	0	807.8166392	807.9166253	0.0999861
73960.75	0.0999994	580	non_foods\stim080_animate_mammal_rhino_4.png	1	4	1	rhino_4	0	249	n/a	NaN	0	0	n/a	0	0	807.9666213	808.0666207	0.0999994
73998.25	0.0999973	581	foods\cracker.jpg	1	4	1	cracker	1	98	TF_043	0	0	0	n/a	0	0	808.1166371	808.2166344	0.0999973
74035.75	0.0999865	582	non_foods\stim127_inanimate_plants_cactus_3.png	1	4	1	cactus_3	0	51	n/a	NaN	0	0	n/a	0	0	808.2666281	808.3666146	0.0999865
74073.25	0.0999891	583	foods\pear.jpg	1	4	1	pear	1	223	NF_077	1	0	0	n/a	0	0	808.4166323	808.5166214	0.0999891
74110.75	0.0999988	584	non_foods\stim135_inanimate_plants_tree_3.png	1	4	1	tree_3	0	301	n/a	NaN	0	0	n/a	0	0	808.5666267	808.6666255	0.0999988
74148.25	0.1000423	585	foods\green_olives.jpg	1	4	1	green_olives	1	148	TF_085	0	0	0	n/a	0	0	808.7166279	808.8166702	0.1000423
74185.75	0.1000134	586	foods\artichoke.jpg	1	4	1	artichoke	1	7	NF_018	1	0	0	n/a	0	0	808.8666061	808.9666195	0.1000134
74223.25	0.0999957	587	non_foods\stim150_inanimate_tools_pan_2.png	1	4	1	pan_2	0	206	n/a	NaN	0	0	n/a	0	0	809.0166195	809.1166152	0.0999957
74260.75	0.0999812	588	foods\museli_bars.jpg	1	4	1	museli_bars	1	193	TF_008	0	0	0	n/a	0	0	809.1666373	809.2666185	0.0999812
74298.25	0.0999882	589	foods\orange.jpg	1	4	1	orange	1	201	NF_008	1	0	0	n/a	0	0	809.3166234	809.4166116	0.0999882
74335.75	0.1000345	590	non_foods\stim139_inanimate_plants_tulip_3.png	1	4	1	tulip_3	0	305	n/a	NaN	0	0	n/a	0	0	809.466615	809.5666495	0.1000345
74373.25	0.0999875	591	non_foods\stim159_inanimate_tools_wrench_3.png	1	4	1	wrench_3	0	312	n/a	NaN	0	0	n/a	0	0	809.6166258	809.7166133	0.0999875
74410.75	0.0999999	592	non_foods\stim089_inanimate_clothing_jeans_1.png	1	4	1	jeans_1	0	164	n/a	NaN	0	0	n/a	0	0	809.7666081	809.866608	0.0999999
74448.25	0.0999995	593	non_foods\stim054_animate_insect_dragonfly_2.png	1	4	1	dragonfly_2	0	107	n/a	NaN	0	0	n/a	0	0	809.9166094	810.0166089	0.0999995
74485.75	0.099989	594	foods\almonds.jpg	1	4	1	almonds	1	0	NF_053	1	0	0	n/a	0	0	810.0666185	810.1666075	0.099989
74523.25	0.0999884	595	foods\lettuce.jpg	1	4	1	lettuce	1	178	NF_046	1	1	0	n/a	0	0	810.2166153	810.3166037	0.0999884
74560.75	0.0999931	596	non_foods\stim108_inanimate_furniture_chair_4.png	1	4	1	chair_4	0	63	n/a	NaN	0	0	n/a	0	0	810.3666135	810.4666066	0.0999931
74598.25	0.1000071	597	non_foods\stim158_inanimate_tools_wrench_2.png	1	4	1	wrench_2	0	311	n/a	NaN	0	1	d	0.392085	1	810.5166051	810.6166122	0.1000071
74635.75	0.1000207	598	foods\salmon.jpg	1	4	1	salmon	1	256	TF_130	0	0	0	n/a	0	0	810.6666126	810.7666333	0.1000207
74673.25	0.0999906	599	non_foods\stim050_animate_insect_butterfly_2.png	1	4	1	butterfly_2	0	45	n/a	NaN	0	0	n/a	0	0	810.8166067	810.9165973	0.0999906
74710.75	0.0999982	600	foods\potatoes.jpg	1	4	1	potatoes	1	237	NF_071	1	0	0	n/a	0	0	810.9666072	811.0666054	0.0999982
74748.25	0.0999958	601	non_foods\stim086_inanimate_clothing_hat_2.png	1	4	1	hat_2	0	156	n/a	NaN	0	0	n/a	0	0	811.1166042	811.2166	0.0999958
74785.75	0.0999789	602	foods\parmesan_cheese.jpg	1	4	1	parmesan_cheese	1	211	TF_091	0	0	0	n/a	0	0	811.2666079	811.3665868	0.0999789
74823.25	0.099983	603	foods\pineapple.jpg	1	4	1	pineapple	1	231	NF_004	1	0	0	n/a	0	0	811.4166027	811.5165857	0.099983
74860.75	0.1000093	604	non_foods\stim123_inanimate_plants_bush_3.png	1	4	1	bush_3	0	42	n/a	NaN	0	0	n/a	0	0	811.5665996	811.6666089	0.1000093
74898.25	0.099997	605	non_foods\stim142_inanimate_tools_broom_2.png	1	4	1	broom_2	0	31	n/a	NaN	0	0	n/a	0	0	811.7165929	811.8165899	0.099997
74935.75	0.0999934	606	foods\mortadella.jpg	1	4	1	mortadella	1	192	TF_083	0	0	0	n/a	0	0	811.8666011	811.9665945	0.0999934
74973.25	0.0999952	607	non_foods\stim037_animate_human_sports_1.png	1	4	1	sports_1	0	278	n/a	NaN	0	0	n/a	0	0	812.0165926	812.1165878	0.0999952
75010.75	0.0999963	608	non_foods\stim032_animate_human_clown_4.png	1	4	1	clown_4	0	88	n/a	NaN	0	0	n/a	0	0	812.1665898	812.2665861	0.0999963
75048.25	0.0999563	609	foods\pumpkin.jpg	1	4	1	pumpkin	1	239	NF_101	1	0	0	n/a	0	0	812.316622	812.4165783	0.0999563
75085.75	0.0999963	610	non_foods\stim034_animate_human_faces_2.png	1	4	1	faces_2	0	118	n/a	NaN	0	0	n/a	0	0	812.4665882	812.5665845	0.0999963
75123.25	0.0999886	611	non_foods\stim140_inanimate_plants_tulip_4.png	1	4	1	tulip_4	0	306	n/a	NaN	0	0	n/a	0	0	812.616596	812.7165846	0.0999886
75160.75	0.0999889	612	foods\pea_pod.jpg	1	4	1	pea_pod	1	217	NF_082	1	0	0	n/a	0	0	812.7665946	812.8665835	0.0999889
75198.25	0.0999956	613	non_foods\stim104_inanimate_furniture_bed_4.png	1	4	1	bed_4	0	22	n/a	NaN	0	0	n/a	0	0	812.9165843	813.0165799	0.0999956
75235.75	0.0999915	614	foods\cream_donuts.jpg	1	4	1	cream_donuts	1	99	TF_014	0	0	0	n/a	0	0	813.066589	813.1665805	0.0999915
75273.25	0.0999889	615	foods\steak.jpg	1	4	1	steak	1	283	TF_013	0	0	0	n/a	0	0	813.2165888	813.3165777	0.0999889
75310.75	0.1000004	616	non_foods\stim085_inanimate_clothing_hat_1.png	1	4	1	hat_1	0	155	n/a	NaN	0	0	n/a	0	0	813.3665803	813.4665807	0.1000004
75348.25	0.099997	617	non_foods\stim095_inanimate_clothing_shirt_3.png	1	4	1	shirt_3	0	264	n/a	NaN	0	0	n/a	0	0	813.5165841	813.6165811	0.099997
75385.75	0.09999	618	non_foods\stim137_inanimate_plants_tulip_1.png	1	4	1	tulip_1	0	303	n/a	NaN	0	0	n/a	0	0	813.6665771	813.7665671	0.09999
75423.25	0.0999956	619	non_foods\stim047_animate_insect_bug_3.png	1	4	1	bug_3	0	38	n/a	NaN	0	0	n/a	0	0	813.8165779	813.9165735	0.0999956
75460.75	0.0999916	620	non_foods\stim002_animate_bird_chicken_2.png	1	4	1	chicken_2	0	67	n/a	NaN	0	0	n/a	0	0	813.9665783	814.0665699	0.0999916
75498.25	0.0999819	621	non_foods\stim017_animate_bird_penguin_1.png	1	4	1	penguin_1	0	225	n/a	NaN	0	0	n/a	0	0	814.1165889	814.2165708	0.0999819
75535.75	0.099991	622	foods\lime.jpg	1	4	1	lime	1	180	NF_048	1	0	0	n/a	0	0	814.2665806	814.3665716	0.099991
75573.25	0.0999937	623	non_foods\stim014_animate_bird_peacock_2.png	1	4	1	peacock_2	0	220	n/a	NaN	0	0	n/a	0	0	814.4165733	814.516567	0.0999937
75610.75	0.0999958	624	foods\pickles.jpg	1	4	1	pickles	1	230	TF_134	0	0	0	n/a	0	0	814.5665753	814.6665711	0.0999958
75648.25	0.0999857	625	foods\oyster.jpg	1	4	1	oyster	1	204	NF_067	1	0	0	n/a	0	0	814.7165777	814.8165634	0.0999857
75685.75	0.1000047	626	non_foods\stim141_inanimate_tools_broom_1.png	1	4	1	broom_1	0	30	n/a	NaN	0	0	n/a	0	0	814.8665529	814.9665576	0.1000047
75723.25	0.1000056	627	non_foods\stim093_inanimate_clothing_shirt_1.png	1	4	1	shirt_1	0	262	n/a	NaN	0	0	n/a	0	0	815.0165671	815.1165727	0.1000056
76798.25	0.099988	628	non_foods\stim113_inanimate_furniture_sofa_1.png	1	5	1	sofa_1	0	271	n/a	NaN	0	0	n/a	0	0	819.3165364	819.4165244	0.099988
76835.75	0.0999898	629	foods\roasted_chicken.jpg	1	5	1	roasted_chicken	1	253	TF_109	0	0	0	n/a	0	0	819.466533	819.5665228	0.0999898
76873.25	0.0999885	630	non_foods\stim155_inanimate_tools_scissors_3.png	1	5	1	scissors_3	0	260	n/a	NaN	0	0	n/a	0	0	819.6165279	819.7165164	0.0999885
76910.75	0.0999933	631	foods\potato_chips.jpg	1	5	1	potato_chips	1	236	TF_097	0	0	0	n/a	0	0	819.7665274	819.8665207	0.0999933
76948.25	0.0999725	632	non_foods\stim159_inanimate_tools_wrench_3.png	1	5	1	wrench_3	0	312	n/a	NaN	0	0	n/a	0	0	819.9165483	820.0165208	0.0999725
76985.75	0.099988	633	foods\cupcake.jpg	1	5	1	cupcake	1	102	TF_050	0	0	0	n/a	0	0	820.0665276	820.1665156	0.099988
77023.25	0.1000016	634	non_foods\stim057_animate_insect_grasshopper_1.png	1	5	1	grasshopper_1	0	143	n/a	NaN	0	0	n/a	0	0	820.2165161	820.3165177	0.1000016
77060.75	0.0999961	635	non_foods\stim090_inanimate_clothing_jeans_2.png	1	5	1	jeans_2	0	165	n/a	NaN	0	0	n/a	0	0	820.3665226	820.4665187	0.0999961
77098.25	0.1000099	636	foods\lemon_meringue_pie.jpg	1	5	1	lemon_meringue_pie	1	176	TF_151	0	0	0	n/a	0	0	820.5165203	820.6165302	0.1000099
77135.75	0.1000017	637	foods\lobster.jpg	1	5	1	lobster	1	182	NF_007	1	0	0	n/a	0	0	820.6665121	820.7665138	0.1000017
77173.25	0.0999899	638	non_foods\stim092_inanimate_clothing_jeans_4.png	1	5	1	jeans_4	0	167	n/a	NaN	0	0	n/a	0	0	820.8165196	820.9165095	0.0999899
77210.75	0.1000062	639	non_foods\stim077_animate_mammal_rhino_1.png	1	5	1	rhino_1	0	246	n/a	NaN	0	0	n/a	0	0	820.9665015	821.0665077	0.1000062
77248.25	0.0999973	640	non_foods\stim121_inanimate_plants_bush_1.png	1	5	1	bush_1	0	40	n/a	NaN	0	0	n/a	0	0	821.1165127	821.21651	0.0999973
77285.75	0.0999879	641	foods\cabbage.jpg	1	5	1	cabbage	1	48	NF_025	1	0	0	n/a	0	0	821.2665176	821.3665055	0.0999879
77323.25	0.0999906	642	foods\prawn.jpg	1	5	1	prawn	1	238	NF_041	1	0	0	n/a	0	0	821.4165152	821.5165058	0.0999906
77360.75	0.1000112	643	foods\octopus.jpg	1	5	1	octopus	1	198	TF_113	0	0	0	n/a	0	0	821.5665143	821.6665255	0.1000112
77398.25	0.0999971	644	non_foods\stim029_animate_human_clown_1.png	1	5	1	clown_1	0	85	n/a	NaN	0	0	n/a	0	0	821.7165055	821.8165026	0.0999971
77435.75	0.0999985	645	non_foods\stim002_animate_bird_chicken_2.png	1	5	1	chicken_2	0	67	n/a	NaN	0	0	n/a	0	0	821.866502	821.9665005	0.0999985
77473.25	0.0999901	646	non_foods\stim099_inanimate_clothing_socks_3.png	1	5	1	socks_3	0	269	n/a	NaN	0	0	n/a	0	0	822.0165074	822.1164975	0.0999901
77510.75	0.0999913	647	foods\green_beans.jpg	1	5	1	green_beans	1	147	NF_034	1	0	0	n/a	0	0	822.1665101	822.2665014	0.0999913
77548.25	0.1000157	648	non_foods\stim115_inanimate_furniture_sofa_3.png	1	5	1	sofa_3	0	273	n/a	NaN	0	0	n/a	0	0	822.3164826	822.4164983	0.1000157
77585.75	0.0999864	649	foods\chocolate_chip_cookies.jpg	1	5	1	chocolate_chip_cookies	1	76	TF_010	0	0	0	n/a	0	0	822.4665065	822.5664929	0.0999864
77623.25	0.0999968	650	non_foods\stim142_inanimate_tools_broom_2.png	1	5	1	broom_2	0	31	n/a	NaN	0	0	n/a	0	0	822.6164979	822.7164947	0.0999968
77660.75	0.0999904	651	non_foods\stim138_inanimate_plants_tulip_2.png	1	5	1	tulip_2	0	304	n/a	NaN	0	0	n/a	0	0	822.7664964	822.8664868	0.0999904
77698.25	0.099994	652	non_foods\stim034_animate_human_faces_2.png	1	5	1	faces_2	0	118	n/a	NaN	0	0	n/a	0	0	822.9164973	823.0164913	0.099994
77735.75	0.1000022	653	foods\cooked_prawn.jpg	1	5	1	cooked_prawn	1	92	TF_060	0	0	0	n/a	0	0	823.0664925	823.1664947	0.1000022
77773.25	0.0999896	654	foods\pea_pod.jpg	1	5	1	pea_pod	1	217	NF_082	1	0	0	n/a	0	0	823.2164999	823.3164895	0.0999896
77810.75	0.100003	655	foods\green_olives.jpg	1	5	1	green_olives	1	148	TF_085	0	0	0	n/a	0	0	823.3664961	823.4664991	0.100003
77848.25	0.0999975	656	non_foods\stim143_inanimate_tools_broom_3.png	1	5	1	broom_3	0	32	n/a	NaN	0	0	n/a	0	0	823.5164894	823.6164869	0.0999975
77885.75	0.0999971	657	non_foods\stim071_animate_mammal_kangaroo_3.png	1	5	1	kangaroo_3	0	170	n/a	NaN	0	0	n/a	0	0	823.6664892	823.7664863	0.0999971
77923.25	0.0999967	658	non_foods\stim025_animate_human_child_1.png	1	5	1	child_1	0	70	n/a	NaN	0	0	n/a	0	0	823.8164894	823.9164861	0.0999967
77960.75	0.0999955	659	non_foods\stim007_animate_bird_duck_3.png	1	5	1	duck_3	0	113	n/a	NaN	0	0	n/a	0	0	823.9664858	824.0664813	0.0999955
77998.25	0.0999988	660	non_foods\stim088_inanimate_clothing_hat_4.png	1	5	1	hat_4	0	158	n/a	NaN	0	0	n/a	0	0	824.1165051	824.2165039	0.0999988
78035.75	0.1000007	661	foods\steak.jpg	1	5	1	steak	1	283	TF_013	0	0	0	n/a	0	0	824.2664812	824.3664819	0.1000007
78073.25	0.1000008	662	non_foods\stim068_animate_mammal_giraffe_4.png	1	5	1	giraffe_4	0	135	n/a	NaN	0	0	n/a	0	0	824.416474	824.5164748	0.1000008
78110.75	0.0999922	663	foods\spinach.jpg	1	5	1	spinach	1	277	NF_094	1	0	0	n/a	0	0	824.5664874	824.6664796	0.0999922
78148.25	0.0999867	664	foods\watermelon.jpg	1	5	1	watermelon	1	309	NF_005	1	0	0	n/a	0	0	824.7164887	824.8164754	0.0999867
78185.75	0.09999	665	foods\cracker.jpg	1	5	1	cracker	1	98	TF_043	0	0	0	n/a	0	0	824.8664815	824.9664715	0.09999
78223.25	0.0999827	666	non_foods\stim083_inanimate_clothing_gloves_3.png	1	5	1	gloves_3	0	138	n/a	NaN	0	0	n/a	0	0	825.0164805	825.1164632	0.0999827
78260.75	0.0999878	667	foods\radish.jpg	1	5	1	radish	1	240	NF_090	1	0	0	n/a	0	0	825.1664766	825.2664644	0.0999878
78298.25	0.0999884	668	foods\bagel.jpg	1	5	1	bagel	1	14	TF_005	0	0	0	n/a	0	0	825.3164821	825.4164705	0.0999884
78335.75	0.0999865	669	non_foods\stim056_animate_insect_dragonfly_4.png	1	5	1	dragonfly_4	0	109	n/a	NaN	0	0	n/a	0	0	825.466474	825.5664605	0.0999865
78373.25	0.099995	670	non_foods\stim062_animate_mammal_cow_2.png	1	5	1	cow_2	0	95	n/a	NaN	0	0	n/a	0	0	825.6164713	825.7164663	0.099995
78410.75	0.0999854	671	foods\onion.jpg	1	5	1	onion	1	200	NF_029	1	0	0	n/a	0	0	825.7664732	825.8664586	0.0999854
78448.25	0.0999703	672	non_foods\stim030_animate_human_clown_2.png	1	5	1	clown_2	0	86	n/a	NaN	0	0	n/a	0	0	825.9164965	826.0164668	0.0999703
78485.75	0.0999999	673	foods\risotto_with_peas_and_asparagus_tips.jpg	1	5	1	risotto_with_peas_and_asparagus_tips	1	252	TF_123	0	0	0	n/a	0	0	826.0664642	826.1664641	0.0999999
78523.25	0.0999884	674	foods\dried_figs.jpg	1	5	1	dried_figs	1	110	TF_054	0	0	0	n/a	0	0	826.2164745	826.3164629	0.0999884
78560.75	0.0999926	675	foods\red_cabbage.jpg	1	5	1	red_cabbage	1	245	NF_023	1	0	0	n/a	0	0	826.3664691	826.4664617	0.0999926
78598.25	0.1000052	676	non_foods\stim020_animate_bird_penguin_4.png	1	5	1	penguin_4	0	228	n/a	NaN	0	0	n/a	0	0	826.5164526	826.6164578	0.1000052
78635.75	0.0999974	677	non_foods\stim151_inanimate_tools_pan_3.png	1	5	1	pan_3	0	207	n/a	NaN	0	0	n/a	0	0	826.6664643	826.7664617	0.0999974
78673.25	0.0999886	678	foods\coffee_beans.jpg	1	5	1	coffee_beans	1	90	TF_029	0	0	0	n/a	0	0	826.816469	826.9164576	0.0999886
78710.75	0.0999666	679	foods\hazelnuts.jpg	1	5	1	hazelnuts	1	159	NF_065	1	0	0	n/a	0	0	826.9664903	827.0664569	0.0999666
78748.25	0.0999924	680	foods\beetroots.jpg	1	5	1	beetroots	1	23	NF_015	1	0	0	n/a	0	0	827.1164614	827.2164538	0.0999924
78785.75	0.0999978	681	non_foods\stim010_animate_bird_parrot_2.png	1	5	1	parrot_2	0	213	n/a	NaN	0	0	n/a	0	0	827.2664551	827.3664529	0.0999978
78823.25	0.099993	682	non_foods\stim133_inanimate_plants_tree_1.png	1	5	1	tree_1	0	299	n/a	NaN	0	0	n/a	0	0	827.4164584	827.5164514	0.099993
78860.75	0.1000139	683	foods\linguine_with_clams.jpg	1	5	1	linguine_with_clams	1	181	TF_077	0	0	0	n/a	0	0	827.5664592	827.6664731	0.1000139
78898.25	0.0999354	684	non_foods\stim079_animate_mammal_rhino_3.png	1	5	1	rhino_3	0	248	n/a	NaN	0	0	n/a	0	0	827.7165074	827.8164428	0.0999354
78935.75	0.1000109	685	non_foods\stim125_inanimate_plants_cactus_1.png	1	5	1	cactus_1	0	49	n/a	NaN	0	0	n/a	0	0	827.8664343	827.9664452	0.1000109
78973.25	0.0999942	686	non_foods\stim117_inanimate_furniture_table_1.png	1	5	1	table_1	0	291	n/a	NaN	0	0	n/a	0	0	828.0164499	828.1164441	0.0999942
79010.75	0.0999699	687	non_foods\stim118_inanimate_furniture_table_2.png	1	5	1	table_2	0	292	n/a	NaN	0	0	n/a	0	0	828.1664508	828.2664207	0.0999699
79048.25	0.0999909	688	foods\nougat.jpg	1	5	1	nougat	1	197	TF_144	0	0	0	n/a	0	0	828.316452	828.4164429	0.0999909
79085.75	0.0999977	689	non_foods\stim016_animate_bird_peacock_4.png	1	5	1	peacock_4	0	222	n/a	NaN	0	0	n/a	0	0	828.4664482	828.5664459	0.0999977
79123.25	0.0999888	690	foods\fried_zucchini.jpg	1	5	1	fried_zucchini	1	125	TF_159	0	0	0	n/a	0	0	828.6164519	828.7164407	0.0999888
79160.75	0.0999765	691	non_foods\stim137_inanimate_plants_tulip_1.png	1	5	1	tulip_1	0	303	n/a	NaN	0	0	n/a	0	0	828.7664626	828.8664391	0.0999765
79198.25	0.0999918	692	foods\raw_ham.jpg	1	5	1	raw_ham	1	242	TF_117	0	0	0	n/a	0	0	828.9164492	829.016441	0.0999918
79235.75	0.09999	693	foods\oven-roasted_tomatoes.jpg	1	5	1	oven-roasted_tomatoes	1	203	TF_114	0	0	0	n/a	0	0	829.0664463	829.1664363	0.09999
79273.25	0.0999898	694	foods\bread_roll.jpg	1	5	1	bread_roll	1	27	TF_090	0	0	0	n/a	0	0	829.2164461	829.3164359	0.0999898
79310.75	0.1000088	695	non_foods\stim084_inanimate_clothing_gloves_4.png	1	5	1	gloves_4	0	139	n/a	NaN	0	0	n/a	0	0	829.3664436	829.4664524	0.1000088
79348.25	0.0999921	696	foods\grilled_chicken_breast.jpg	1	5	1	grilled_chicken_breast	1	149	TF_104	0	0	0	n/a	0	0	829.516442	829.6164341	0.0999921
79385.75	0.0999884	697	foods\pomegranate.jpg	1	5	1	pomegranate	1	232	NF_058	1	0	0	n/a	0	0	829.6664436	829.766432	0.0999884
79423.25	0.099996	698	non_foods\stim050_animate_insect_butterfly_2.png	1	5	1	butterfly_2	0	45	n/a	NaN	0	0	n/a	0	0	829.8164343	829.9164303	0.099996
79460.75	0.099993	699	non_foods\stim145_inanimate_tools_hammer_1.png	1	5	1	hammer_1	0	151	n/a	NaN	0	0	n/a	0	0	829.9664321	830.0664251	0.099993
79498.25	0.0999897	700	non_foods\stim026_animate_human_child_2.png	1	5	1	child_2	0	71	n/a	NaN	0	0	n/a	0	0	830.1164335	830.2164232	0.0999897
79535.75	0.0998763	701	non_foods\stim046_animate_insect_bug_2.png	1	5	1	bug_2	0	37	n/a	NaN	0	0	n/a	0	0	830.2665377	830.366414	0.0998763
79573.25	0.0999953	702	foods\kiwi.jpg	1	5	1	kiwi	1	172	NF_044	1	0	0	n/a	0	0	830.4164259	830.5164212	0.0999953
79610.75	0.0999928	703	foods\donut.jpg	1	5	1	donut	1	105	TF_032	0	0	0	n/a	0	0	830.5664255	830.6664183	0.0999928
79648.25	0.1000124	704	foods\mandarin.jpg	1	5	1	mandarin	1	184	NF_052	1	0	0	n/a	0	0	830.7164222	830.8164346	0.1000124
79685.75	0.0999438	705	non_foods\stim139_inanimate_plants_tulip_3.png	1	5	1	tulip_3	0	305	n/a	NaN	0	0	n/a	0	0	830.8664778	830.9664216	0.0999438
79723.25	0.0999875	706	non_foods\stim048_animate_insect_bug_4.png	1	5	1	bug_4	0	39	n/a	NaN	0	0	n/a	0	0	831.0164241	831.1164116	0.0999875
79760.75	0.1000119	707	foods\baked_lamb_with_potatoes.jpg	1	5	1	baked_lamb_with_potatoes	1	17	TF_001	0	0	0	n/a	0	0	831.1664302	831.2664421	0.1000119
79798.25	0.0999883	708	foods\nectarine.jpg	1	5	1	nectarine	1	196	NF_078	1	0	0	n/a	0	0	831.3164287	831.416417	0.0999883
79835.75	0.0999884	709	foods\lollies.jpg	1	5	1	lollies	1	183	TF_026	0	0	0	n/a	0	0	831.4664251	831.5664135	0.0999884
79873.25	0.0999992	710	non_foods\stim144_inanimate_tools_broom_4.png	1	5	1	broom_4	0	33	n/a	NaN	0	0	n/a	0	0	831.6164176	831.7164168	0.0999992
79910.75	0.0999881	711	foods\gnocchi.jpg	1	5	1	gnocchi	1	140	TF_064	0	0	0	n/a	0	0	831.7664229	831.866411	0.0999881
79948.25	0.0999947	712	foods\fried_calamari.jpg	1	5	1	fried_calamari	1	124	TF_020	0	0	0	n/a	0	0	831.9164199	832.0164146	0.0999947
79985.75	0.099994	713	non_foods\stim052_animate_insect_butterfly_4.png	1	5	1	butterfly_4	0	47	n/a	NaN	0	0	n/a	0	0	832.0664071	832.1664011	0.099994
80023.25	0.0999911	714	foods\coconut.jpg	1	5	1	coconut	1	89	NF_030	1	0	0	n/a	0	0	832.2164157	832.3164068	0.0999911
80060.75	0.0999974	715	non_foods\stim096_inanimate_clothing_shirt_4.png	1	5	1	shirt_4	0	265	n/a	NaN	0	0	n/a	0	0	832.3664115	832.4664089	0.0999974
80098.25	0.0999896	716	foods\bread.jpg	1	5	1	bread	1	26	TF_089	0	0	0	n/a	0	0	832.5164164	832.616406	0.0999896
80135.75	0.09999	717	foods\minestrone_soup.jpg	1	5	1	minestrone_soup	1	187	TF_160	0	0	0	n/a	0	0	832.666414	832.766404	0.09999
80173.25	0.0999958	718	non_foods\stim069_animate_mammal_kangaroo_1.png	1	5	1	kangaroo_1	0	168	n/a	NaN	0	0	n/a	0	0	832.8164088	832.9164046	0.0999958
80210.75	0.1000035	719	foods\swordfish.jpg	1	5	1	swordfish	1	290	TF_101	0	0	0	n/a	0	0	832.9664102	833.0664137	0.1000035
80248.25	0.1000079	720	non_foods\stim058_animate_insect_grasshopper_2.png	1	5	1	grasshopper_2	0	144	n/a	NaN	0	0	n/a	0	0	833.1163953	833.2164032	0.1000079
80285.75	0.0999949	721	non_foods\stim040_animate_human_sports_4.png	1	5	1	sports_4	0	281	n/a	NaN	0	0	n/a	0	0	833.2664027	833.3663976	0.0999949
80323.25	0.0999915	722	non_foods\stim158_inanimate_tools_wrench_2.png	1	5	1	wrench_2	0	311	n/a	NaN	0	0	n/a	0	0	833.4164025	833.516394	0.0999915
80360.75	0.0999979	723	non_foods\stim147_inanimate_tools_hammer_3.png	1	5	1	hammer_3	0	153	n/a	NaN	0	0	n/a	0	0	833.5664011	833.666399	0.0999979
80398.25	0.0999956	724	non_foods\stim123_inanimate_plants_bush_3.png	1	5	1	bush_3	0	42	n/a	NaN	0	0	n/a	0	0	833.7163992	833.8163948	0.0999956
80435.75	0.1000047	725	non_foods\stim114_inanimate_furniture_sofa_2.png	1	5	1	sofa_2	0	272	n/a	NaN	0	0	n/a	0	0	833.8663889	833.9663936	0.1000047
80473.25	0.1000005	726	foods\oyster.jpg	1	5	1	oyster	1	204	NF_067	1	0	0	n/a	0	0	834.0164035	834.116404	0.1000005
80510.75	0.0999867	727	non_foods\stim053_animate_insect_dragonfly_1.png	1	5	1	dragonfly_1	0	106	n/a	NaN	0	0	n/a	0	0	834.166396	834.2663827	0.0999867
80548.25	0.0999878	728	foods\orange.jpg	1	5	1	orange	1	201	NF_008	1	0	0	n/a	0	0	834.3164018	834.4163896	0.0999878
80585.75	0.0999919	729	non_foods\stim087_inanimate_clothing_hat_3.png	1	5	1	hat_3	0	157	n/a	NaN	0	0	n/a	0	0	834.4663947	834.5663866	0.0999919
80623.25	0.1000203	730	non_foods\stim089_inanimate_clothing_jeans_1.png	1	5	1	jeans_1	0	164	n/a	NaN	0	0	n/a	0	0	834.6163895	834.7164098	0.1000203
80660.75	0.0999754	731	non_foods\stim055_animate_insect_dragonfly_3.png	1	5	1	dragonfly_3	0	108	n/a	NaN	0	0	n/a	0	0	834.7664105	834.8663859	0.0999754
80698.25	0.0999962	732	non_foods\stim019_animate_bird_penguin_3.png	1	5	1	penguin_3	0	227	n/a	NaN	0	0	n/a	0	0	834.916387	835.0163832	0.0999962
80735.75	0.0999802	733	foods\broccoli.jpg	1	5	1	broccoli	1	29	NF_016	1	0	0	n/a	0	0	835.0663943	835.1663745	0.0999802
80773.25	0.0999938	734	non_foods\stim160_inanimate_tools_wrench_4.png	1	5	1	wrench_4	0	313	n/a	NaN	0	0	n/a	0	0	835.2163862	835.31638	0.0999938
80810.75	0.099994	735	foods\grapes.jpg	1	5	1	grapes	1	142	NF_098	1	0	0	n/a	0	0	835.3663894	835.4663834	0.099994
80848.25	0.0999898	736	foods\raw_sausage.jpg	1	5	1	raw_sausage	1	243	TF_131	0	0	0	n/a	0	0	835.5163905	835.6163803	0.0999898
80885.75	0.0999877	737	foods\pickles.jpg	1	5	1	pickles	1	230	TF_134	0	0	0	n/a	0	0	835.6663893	835.766377	0.0999877
80923.25	0.0999957	738	non_foods\stim108_inanimate_furniture_chair_4.png	1	5	1	chair_4	0	63	n/a	NaN	0	0	n/a	0	0	835.8163831	835.9163788	0.0999957
80960.75	0.099987	739	foods\dates.jpg	1	5	1	dates	1	104	NF_032	1	0	0	n/a	0	0	835.9663887	836.0663757	0.099987
80998.25	0.0999961	740	non_foods\stim063_animate_mammal_cow_3.png	1	5	1	cow_3	0	96	n/a	NaN	0	0	n/a	0	0	836.1163791	836.2163752	0.0999961
81035.75	0.0999918	741	foods\artichoke.jpg	1	5	1	artichoke	1	7	NF_018	1	0	0	n/a	0	0	836.26638	836.3663718	0.0999918
81073.25	0.0999839	742	non_foods\stim153_inanimate_tools_scissors_1.png	1	5	1	scissors_1	0	258	n/a	NaN	0	0	n/a	0	0	836.4163746	836.5163585	0.0999839
81110.75	0.0999764	743	non_foods\stim094_inanimate_clothing_shirt_2.png	1	5	1	shirt_2	0	263	n/a	NaN	0	0	n/a	0	0	836.5663962	836.6663726	0.0999764
81148.25	0.099986	744	foods\waffle.jpg	1	5	1	waffle	1	308	TF_030	0	0	0	n/a	0	0	836.7163826	836.8163686	0.099986
81185.75	0.0999848	745	foods\spaghetti_with_olives_and_capers.jpg	1	5	1	spaghetti_with_olives_and_capers	1	276	TF_135	0	1	0	n/a	0	0	836.8663771	836.9663619	0.0999848
81223.25	0.0999949	746	foods\fruit_flan.jpg	1	5	1	fruit_flan	1	127	TF_093	0	0	0	n/a	0	0	837.0163729	837.1163678	0.0999949
81260.75	0.0999941	747	non_foods\stim027_animate_human_child_3.png	1	5	1	child_3	0	72	n/a	NaN	0	1	d	0.2923116	1	837.1663717	837.2663658	0.0999941
81298.25	0.099999	748	non_foods\stim085_inanimate_clothing_hat_1.png	1	5	1	hat_1	0	155	n/a	NaN	0	0	n/a	0	0	837.3163684	837.4163674	0.099999
81335.75	0.0999958	749	non_foods\stim131_inanimate_plants_sunflower_3.png	1	5	1	sunflower_3	0	288	n/a	NaN	0	0	n/a	0	0	837.4663659	837.5663617	0.0999958
81373.25	0.0999977	750	non_foods\stim073_animate_mammal_monkey_1.png	1	5	1	monkey_1	0	188	n/a	NaN	0	0	n/a	0	0	837.6163677	837.7163654	0.0999977
81410.75	0.0999956	751	foods\pork_loin_with_peas.jpg	1	5	1	pork_loin_with_peas	1	234	TF_003	0	0	0	n/a	0	0	837.7663671	837.8663627	0.0999956
81448.25	0.0999899	752	foods\chestnut.jpg	1	5	1	chestnut	1	65	NF_020	1	0	0	n/a	0	0	837.9163676	838.0163575	0.0999899
81485.75	0.0999887	753	foods\lamb_chops.jpg	1	5	1	lamb_chops	1	173	TF_040	0	0	0	n/a	0	0	838.0663661	838.1663548	0.0999887
