onset	duration	eventnumber	stimpath	blockno	trialno	is_faststream	stim	food_idx	image_number	stim_code	is_natural	istarget	response	keypressed	rt	correct	time_stimon	time_stimoff	stimdur
27466.75	0.0999858	0	non_foods\stim025_animate_human_child_1.png	1	1	1	child_1	0	70	n/a	NaN	0	0	n/a	0	0	448.418248	448.5182338	0.0999858
27504.25	0.0999855	1	foods\pepperoni_pizza.jpg	1	1	1	pepperoni_pizza	1	229	TF_106	0	0	0	n/a	0	0	448.5682513	448.6682368	0.0999855
27541.75	0.0999877	2	foods\fennel.jpg	1	1	1	fennel	1	121	NF_036	1	0	0	n/a	0	0	448.7182482	448.8182359	0.0999877
27579.25	0.0999699	3	foods\stew_with_potatoes_and_carrots.jpg	1	1	1	stew_with_potatoes_and_carrots	1	284	TF_139	0	0	0	n/a	0	0	448.8682625	448.9682324	0.0999699
27616.75	0.0999939	4	foods\corncob.jpg	1	1	1	corncob	1	93	NF_051	1	0	0	n/a	0	0	449.0182374	449.1182313	0.0999939
27654.25	0.0999928	5	non_foods\stim115_inanimate_furniture_sofa_3.png	1	1	1	sofa_3	0	273	n/a	NaN	0	0	n/a	0	0	449.1682364	449.2682292	0.0999928
27691.75	0.09999	6	foods\croissant.jpg	1	1	1	croissant	1	100	TF_037	0	0	0	n/a	0	0	449.3182355	449.4182255	0.09999
27729.25	0.1001844	7	non_foods\stim002_animate_bird_chicken_2.png	1	1	1	chicken_2	0	67	n/a	NaN	0	0	n/a	0	0	449.4682301	449.5684145	0.1001844
27766.75	0.0999897	8	non_foods\stim021_animate_human_baby_1.png	1	1	1	baby_1	0	10	n/a	NaN	0	0	n/a	0	0	449.6182323	449.718222	0.0999897
27804.25	0.0999913	9	foods\fruit_pie.jpg	1	1	1	fruit_pie	1	128	TF_147	0	0	0	n/a	0	0	449.7682345	449.8682258	0.0999913
27841.75	0.0999862	10	foods\bagel.jpg	1	1	1	bagel	1	14	TF_005	0	0	0	n/a	0	0	449.9182327	450.0182189	0.0999862
27879.25	0.0999955	11	non_foods\stim108_inanimate_furniture_chair_4.png	1	1	1	chair_4	0	63	n/a	NaN	0	0	n/a	0	0	450.0682249	450.1682204	0.0999955
27916.75	0.0999915	12	foods\spinach.jpg	1	1	1	spinach	1	277	NF_094	1	0	0	n/a	0	0	450.2182263	450.3182178	0.0999915
27954.25	0.0999925	13	non_foods\stim142_inanimate_tools_broom_2.png	1	1	1	broom_2	0	31	n/a	NaN	0	0	n/a	0	0	450.3682222	450.4682147	0.0999925
27991.75	0.1000144	14	foods\spaghetti_with_olives_and_capers.jpg	1	1	1	spaghetti_with_olives_and_capers	1	276	TF_135	0	0	0	n/a	0	0	450.5182273	450.6182417	0.1000144
28029.25	0.0999669	15	non_foods\stim098_inanimate_clothing_socks_2.png	1	1	1	socks_2	0	268	n/a	NaN	0	0	n/a	0	0	450.6682476	450.7682145	0.0999669
28066.75	0.0999996	16	non_foods\stim145_inanimate_tools_hammer_1.png	1	1	1	hammer_1	0	151	n/a	NaN	0	0	n/a	0	0	450.8182134	450.918213	0.0999996
28104.25	0.1000019	17	non_foods\stim148_inanimate_tools_hammer_4.png	1	1	1	hammer_4	0	154	n/a	NaN	0	0	n/a	0	0	450.9682109	451.0682128	0.1000019
28141.75	0.0999853	18	foods\fruit_flan.jpg	1	1	1	fruit_flan	1	127	TF_093	0	0	0	n/a	0	0	451.118224	451.2182093	0.0999853
28179.25	0.0999925	19	non_foods\stim151_inanimate_tools_pan_3.png	1	1	1	pan_3	0	207	n/a	NaN	0	0	n/a	0	0	451.268217	451.3682095	0.0999925
28216.75	0.0999937	20	non_foods\stim077_animate_mammal_rhino_1.png	1	1	1	rhino_1	0	246	n/a	NaN	0	0	n/a	0	0	451.418214	451.5182077	0.0999937
28254.25	0.099988	21	foods\hotdog.jpg	1	1	1	hotdog	1	161	TF_070	0	1	0	n/a	0	0	451.5682155	451.6682035	0.099988
28291.75	0.1000082	22	non_foods\stim116_inanimate_furniture_sofa_4.png	1	1	1	sofa_4	0	274	n/a	NaN	0	0	n/a	0	0	451.7182076	451.8182158	0.1000082
28329.25	0.0999882	23	foods\blue_cheese.jpg	1	1	1	blue_cheese	1	25	TF_066	0	0	1	f	0.3920894	1	451.8682129	451.9682011	0.0999882
28366.75	0.0999919	24	foods\asparagus.jpg	1	1	1	asparagus	1	8	NF_010	1	0	0	n/a	0	0	452.0182128	452.1182047	0.0999919
28404.25	0.1000022	25	non_foods\stim040_animate_human_sports_4.png	1	1	1	sports_4	0	281	n/a	NaN	0	0	n/a	0	0	452.1682011	452.2682033	0.1000022
28441.75	0.0999996	26	non_foods\stim107_inanimate_furniture_chair_3.png	1	1	1	chair_3	0	62	n/a	NaN	0	0	n/a	0	0	452.3182071	452.4182067	0.0999996
28479.25	0.099961	27	foods\artichoke.jpg	1	1	1	artichoke	1	7	NF_018	1	0	0	n/a	0	0	452.4682225	452.5681835	0.099961
28516.75	0.0999805	28	foods\cream_donuts.jpg	1	1	1	cream_donuts	1	99	TF_014	0	0	0	n/a	0	0	452.6182079	452.7181884	0.0999805
28554.25	0.1000076	29	non_foods\stim010_animate_bird_parrot_2.png	1	1	1	parrot_2	0	213	n/a	NaN	0	0	n/a	0	0	452.7681875	452.8681951	0.1000076
28591.75	0.099998	30	non_foods\stim005_animate_bird_duck_1.png	1	1	1	duck_1	0	111	n/a	NaN	0	0	n/a	0	0	452.918197	453.018195	0.099998
28629.25	0.0999952	31	non_foods\stim101_inanimate_furniture_bed_1.png	1	1	1	bed_1	0	19	n/a	NaN	0	0	n/a	0	0	453.0681966	453.1681918	0.0999952
28666.75	0.0999947	32	non_foods\stim006_animate_bird_duck_2.png	1	1	1	duck_2	0	112	n/a	NaN	0	0	n/a	0	0	453.2181942	453.3181889	0.0999947
28704.25	0.0999947	33	non_foods\stim023_animate_human_baby_3.png	1	1	1	baby_3	0	12	n/a	NaN	0	0	n/a	0	0	453.3681954	453.4681901	0.0999947
28741.75	0.0999662	34	foods\potatoes.jpg	1	1	1	potatoes	1	237	NF_071	1	0	0	n/a	0	0	453.5182212	453.6181874	0.0999662
28779.25	0.0999976	35	non_foods\stim086_inanimate_clothing_hat_2.png	1	1	1	hat_2	0	156	n/a	NaN	0	0	n/a	0	0	453.6681892	453.7681868	0.0999976
28816.75	0.0999907	36	non_foods\stim110_inanimate_furniture_closet_2.png	1	1	1	closet_2	0	82	n/a	NaN	0	0	n/a	0	0	453.8181919	453.9181826	0.0999907
28854.25	0.0999945	37	non_foods\stim011_animate_bird_parrot_3.png	1	1	1	parrot_3	0	214	n/a	NaN	0	0	n/a	0	0	453.968188	454.0681825	0.0999945
28891.75	0.1000233	38	non_foods\stim044_animate_insect_ant_4.png	1	1	1	ant_4	0	4	n/a	NaN	0	0	n/a	0	0	454.1181897	454.218213	0.1000233
28929.25	0.0999874	39	foods\honey.jpg	1	1	1	honey	1	160	NF_062	1	0	0	n/a	0	0	454.2681941	454.3681815	0.0999874
28966.75	0.0999921	40	foods\raw_ham.jpg	1	1	1	raw_ham	1	242	TF_117	0	0	0	n/a	0	0	454.4181894	454.5181815	0.0999921
29004.25	0.099988	41	foods\waffle.jpg	1	1	1	waffle	1	308	TF_030	0	0	0	n/a	0	0	454.5681886	454.6681766	0.099988
29041.75	0.0999976	42	non_foods\stim028_animate_human_child_4.png	1	1	1	child_4	0	73	n/a	NaN	0	0	n/a	0	0	454.7181775	454.8181751	0.0999976
29079.25	0.0999926	43	foods\mussels.jpg	1	1	1	mussels	1	195	TF_042	0	0	0	n/a	0	0	454.8681824	454.968175	0.0999926
29116.75	0.0999939	44	non_foods\stim068_animate_mammal_giraffe_4.png	1	1	1	giraffe_4	0	135	n/a	NaN	0	0	n/a	0	0	455.0181787	455.1181726	0.0999939
29154.25	0.0999921	45	foods\capsicum.jpg	1	1	1	capsicum	1	55	NF_076	1	0	0	n/a	0	0	455.1681798	455.2681719	0.0999921
29191.75	0.0999859	46	foods\potato_chips.jpg	1	1	1	potato_chips	1	236	TF_097	0	0	0	n/a	0	0	455.3181819	455.4181678	0.0999859
29229.25	0.099986	47	foods\hamburger.jpg	1	1	1	hamburger	1	150	TF_069	0	0	0	n/a	0	0	455.4681793	455.5681653	0.099986
29266.75	0.0999866	48	foods\strawberry.jpg	1	1	1	strawberry	1	285	NF_037	1	0	0	n/a	0	0	455.6181795	455.7181661	0.0999866
29304.25	0.0999953	49	non_foods\stim070_animate_mammal_kangaroo_2.png	1	1	1	kangaroo_2	0	169	n/a	NaN	0	0	n/a	0	0	455.7681693	455.8681646	0.0999953
29341.75	0.1000198	50	non_foods\stim029_animate_human_clown_1.png	1	1	1	clown_1	0	85	n/a	NaN	0	0	n/a	0	0	455.9181721	456.0181919	0.1000198
29379.25	0.1000979	51	foods\pea_pod.jpg	1	1	1	pea_pod	1	217	NF_082	1	0	0	n/a	0	0	456.0681684	456.1682663	0.1000979
29416.75	0.0999899	52	non_foods\stim017_animate_bird_penguin_1.png	1	1	1	penguin_1	0	225	n/a	NaN	0	0	n/a	0	0	456.2181713	456.3181612	0.0999899
29454.25	0.0999928	53	non_foods\stim041_animate_insect_ant_1.png	1	1	1	ant_1	0	1	n/a	NaN	1	0	n/a	0	0	456.3681676	456.4681604	0.0999928
29491.75	0.0999856	54	foods\banana.jpg	1	1	1	banana	1	18	NF_013	1	0	0	n/a	0	0	456.5181708	456.6181564	0.0999856
29529.25	0.099994	55	non_foods\stim138_inanimate_plants_tulip_2.png	1	1	1	tulip_2	0	304	n/a	NaN	0	1	a	0.3920805	1	456.6681594	456.7681534	0.099994
29566.75	0.0999923	56	non_foods\stim132_inanimate_plants_sunflower_4.png	1	1	1	sunflower_4	0	289	n/a	NaN	0	0	n/a	0	0	456.8181639	456.9181562	0.0999923
29604.25	0.1000195	57	non_foods\stim071_animate_mammal_kangaroo_3.png	1	1	1	kangaroo_3	0	170	n/a	NaN	0	0	n/a	0	0	456.9681555	457.068175	0.1000195
29641.75	0.0999991	58	non_foods\stim080_animate_mammal_rhino_4.png	1	1	1	rhino_4	0	249	n/a	NaN	0	0	n/a	0	0	457.1181546	457.2181537	0.0999991
29679.25	0.0999861	59	foods\pear.jpg	1	1	1	pear	1	223	NF_077	1	0	0	n/a	0	0	457.2681639	457.36815	0.0999861
29716.75	0.0999968	60	non_foods\stim038_animate_human_sports_2.png	1	1	1	sports_2	0	279	n/a	NaN	0	0	n/a	0	0	457.4181515	457.5181483	0.0999968
29754.25	0.100002	61	non_foods\stim099_inanimate_clothing_socks_3.png	1	1	1	socks_3	0	269	n/a	NaN	0	0	n/a	0	0	457.5681538	457.6681558	0.100002
29791.75	0.0999679	62	foods\brussel_sprouts.jpg	1	1	1	brussel_sprouts	1	35	NF_021	1	0	0	n/a	0	0	457.718178	457.8181459	0.0999679
29829.25	0.0999764	63	non_foods\stim056_animate_insect_dragonfly_4.png	1	1	1	dragonfly_4	0	109	n/a	NaN	0	0	n/a	0	0	457.8681696	457.968146	0.0999764
29866.75	0.0999881	64	foods\cooked_ham.jpg	1	1	1	cooked_ham	1	91	TF_116	0	0	0	n/a	0	0	458.0181547	458.1181428	0.0999881
29904.25	0.0999985	65	non_foods\stim085_inanimate_clothing_hat_1.png	1	1	1	hat_1	0	155	n/a	NaN	0	0	n/a	0	0	458.1681445	458.268143	0.0999985
29941.75	0.0999892	66	foods\rice_cake.jpg	1	1	1	rice_cake	1	251	TF_059	0	0	0	n/a	0	0	458.3181507	458.4181399	0.0999892
29979.25	0.0999877	67	foods\nectarine.jpg	1	1	1	nectarine	1	196	NF_078	1	0	0	n/a	0	0	458.4681518	458.5681395	0.0999877
30016.75	0.0999917	68	foods\green_beans.jpg	1	1	1	green_beans	1	147	NF_034	1	0	0	n/a	0	0	458.6181471	458.7181388	0.0999917
30054.25	0.1000056	69	foods\peas.jpg	1	1	1	peas	1	224	NF_081	1	0	0	n/a	0	0	458.7681462	458.8681518	0.1000056
30091.75	0.0999882	70	foods\potato_and_green_bean_salad.jpg	1	1	1	potato_and_green_bean_salad	1	235	TF_072	0	0	0	n/a	0	0	458.9181459	459.0181341	0.0999882
30129.25	0.0999971	71	non_foods\stim052_animate_insect_butterfly_4.png	1	1	1	butterfly_4	0	47	n/a	NaN	0	0	n/a	0	0	459.0681374	459.1681345	0.0999971
30166.75	0.099994	72	non_foods\stim045_animate_insect_bug_1.png	1	1	1	bug_1	0	36	n/a	NaN	0	0	n/a	0	0	459.2181379	459.3181319	0.099994
30204.25	0.0999938	73	non_foods\stim083_inanimate_clothing_gloves_3.png	1	1	1	gloves_3	0	138	n/a	NaN	0	0	n/a	0	0	459.3681396	459.4681334	0.0999938
30241.75	0.0999689	74	foods\bread_roll.jpg	1	1	1	bread_roll	1	27	TF_090	0	0	0	n/a	0	0	459.518159	459.6181279	0.0999689
30279.25	0.0999905	75	non_foods\stim135_inanimate_plants_tree_3.png	1	1	1	tree_3	0	301	n/a	NaN	0	0	n/a	0	0	459.6681349	459.7681254	0.0999905
30316.75	0.0999911	76	foods\lemon.jpg	1	1	1	lemon	1	175	NF_049	1	0	0	n/a	0	0	459.8181354	459.9181265	0.0999911
30354.25	0.0999932	77	non_foods\stim024_animate_human_baby_4.png	1	1	1	baby_4	0	13	n/a	NaN	0	0	n/a	0	0	459.9681311	460.0681243	0.0999932
30391.75	0.0999889	78	foods\orange.jpg	1	1	1	orange	1	201	NF_008	1	0	0	n/a	0	0	460.1181352	460.2181241	0.0999889
30429.25	0.0999916	79	foods\almonds.jpg	1	1	1	almonds	1	0	NF_053	1	0	0	n/a	0	0	460.2681323	460.3681239	0.0999916
30466.75	0.0999848	80	foods\fries.jpg	1	1	1	fries	1	126	TF_094	0	0	0	n/a	0	0	460.4181338	460.5181186	0.0999848
30504.25	0.1000067	81	foods\cucumber.jpg	1	1	1	cucumber	1	101	NF_026	1	0	0	n/a	0	0	460.5681263	460.668133	0.1000067
30541.75	0.0999915	82	foods\avocado.jpg	1	1	1	avocado	1	9	NF_012	1	0	0	n/a	0	0	460.7181298	460.8181213	0.0999915
30579.25	0.0999981	83	non_foods\stim092_inanimate_clothing_jeans_4.png	1	1	1	jeans_4	0	167	n/a	NaN	0	0	n/a	0	0	460.8681203	460.9681184	0.0999981
30616.75	0.0999878	84	foods\linguine_with_clams.jpg	1	1	1	linguine_with_clams	1	181	TF_077	0	0	0	n/a	0	0	461.018126	461.1181138	0.0999878
30654.25	0.099989	85	non_foods\stim054_animate_insect_dragonfly_2.png	1	1	1	dragonfly_2	0	107	n/a	NaN	0	0	n/a	0	0	461.1681188	461.2681078	0.099989
30691.75	0.099968	86	foods\minestrone_soup.jpg	1	1	1	minestrone_soup	1	187	TF_160	0	0	0	n/a	0	0	461.3181423	461.4181103	0.099968
30729.25	0.0999923	87	foods\tomato.jpg	1	1	1	tomato	1	298	NF_084	1	0	0	n/a	0	0	461.4681185	461.5681108	0.0999923
30766.75	0.0999954	88	non_foods\stim051_animate_insect_butterfly_3.png	1	1	1	butterfly_3	0	46	n/a	NaN	0	0	n/a	0	0	461.6181147	461.7181101	0.0999954
30804.25	0.099995	89	non_foods\stim097_inanimate_clothing_socks_1.png	1	1	1	socks_1	0	267	n/a	NaN	0	0	n/a	0	0	461.7681114	461.8681064	0.099995
30841.75	0.0999875	90	foods\pork_and_rice.jpg	1	1	1	pork_and_rice	1	233	TF_080	0	0	0	n/a	0	0	461.9181193	462.0181068	0.0999875
30879.25	0.0999944	91	non_foods\stim069_animate_mammal_kangaroo_1.png	1	1	1	kangaroo_1	0	168	n/a	NaN	0	0	n/a	0	0	462.0681091	462.1681035	0.0999944
30916.75	0.0999903	92	foods\dates.jpg	1	1	1	dates	1	104	NF_032	1	0	0	n/a	0	0	462.2181144	462.3181047	0.0999903
30954.25	0.1000162	93	non_foods\stim141_inanimate_tools_broom_1.png	1	1	1	broom_1	0	30	n/a	NaN	0	0	n/a	0	0	462.3681063	462.4681225	0.1000162
30991.75	0.0999899	94	foods\apple.jpg	1	1	1	apple	1	5	NF_055	1	0	0	n/a	0	0	462.5181093	462.6180992	0.0999899
31029.25	0.1000054	95	non_foods\stim016_animate_bird_peacock_4.png	1	1	1	peacock_4	0	222	n/a	NaN	0	0	n/a	0	0	462.6681039	462.7681093	0.1000054
31066.75	0.0999834	96	foods\risotto_with_peas_and_asparagus_tips.jpg	1	1	1	risotto_with_peas_and_asparagus_tips	1	252	TF_123	0	0	0	n/a	0	0	462.8181099	462.9180933	0.0999834
31104.25	0.1000158	97	non_foods\stim043_animate_insect_ant_3.png	1	1	1	ant_3	0	3	n/a	NaN	0	0	n/a	0	0	462.9680993	463.0681151	0.1000158
31141.75	0.0999829	98	foods\baked_lamb_with_potatoes.jpg	1	1	1	baked_lamb_with_potatoes	1	17	TF_001	0	0	0	n/a	0	0	463.1181152	463.2180981	0.0999829
31179.25	0.1000143	99	foods\watermelon.jpg	1	1	1	watermelon	1	309	NF_005	1	0	0	n/a	0	0	463.2680785	463.3680928	0.1000143
31216.75	0.0999901	100	foods\fruit_salad.jpg	1	1	1	fruit_salad	1	129	NF_043	1	0	0	n/a	0	0	463.4181041	463.5180942	0.0999901
31254.25	0.0999965	101	non_foods\stim152_inanimate_tools_pan_4.png	1	1	1	pan_4	0	208	n/a	NaN	0	0	n/a	0	0	463.5680935	463.66809	0.0999965
31291.75	0.0999953	102	non_foods\stim061_animate_mammal_cow_1.png	1	1	1	cow_1	0	94	n/a	NaN	0	0	n/a	0	0	463.718092	463.8180873	0.0999953
31329.25	0.0999979	103	non_foods\stim104_inanimate_furniture_bed_4.png	1	1	1	bed_4	0	22	n/a	NaN	0	0	n/a	0	0	463.8680919	463.9680898	0.0999979
31366.75	0.0999935	104	non_foods\stim001_animate_bird_chicken_1.png	1	1	1	chicken_1	0	66	n/a	NaN	0	0	n/a	0	0	464.0180928	464.1180863	0.0999935
31404.25	0.0999821	105	foods\fried_zucchini.jpg	1	1	1	fried_zucchini	1	125	TF_159	0	0	0	n/a	0	0	464.1681116	464.2680937	0.0999821
31441.75	0.0999891	106	foods\figs.jpg	1	1	1	figs	1	122	NF_035	1	0	0	n/a	0	0	464.3180949	464.418084	0.0999891
31479.25	0.0999933	107	non_foods\stim125_inanimate_plants_cactus_1.png	1	1	1	cactus_1	0	49	n/a	NaN	1	0	n/a	0	0	464.468087	464.5680803	0.0999933
31516.75	0.0999914	108	foods\ginger_root.jpg	1	1	1	ginger_root	1	131	NF_088	1	0	0	n/a	0	0	464.6180914	464.7180828	0.0999914
31554.25	0.1000095	109	non_foods\stim095_inanimate_clothing_shirt_3.png	1	1	1	shirt_3	0	264	n/a	NaN	0	1	a	0.3920949	1	464.768091	464.8681005	0.1000095
31591.75	0.0999779	110	foods\salami.jpg	1	1	1	salami	1	255	TF_127	0	0	0	n/a	0	0	464.9181013	465.0180792	0.0999779
31629.25	0.1000031	111	foods\spaghetti_with_meat_sauce.jpg	1	1	1	spaghetti_with_meat_sauce	1	275	TF_137	0	0	0	n/a	0	0	465.0680876	465.1680907	0.1000031
31666.75	0.0999882	112	foods\cinnamon_sroll.jpg	1	1	1	cinnamon_sroll	1	80	TF_021	0	0	0	n/a	0	0	465.2180846	465.3180728	0.0999882
31704.25	0.0999997	113	foods\wafer.jpg	1	1	1	wafer	1	307	TF_155	0	0	0	n/a	0	0	465.3680834	465.4680831	0.0999997
31741.75	0.0999936	114	non_foods\stim032_animate_human_clown_4.png	1	1	1	clown_4	0	88	n/a	NaN	0	0	n/a	0	0	465.5180766	465.6180702	0.0999936
31779.25	0.0999957	115	non_foods\stim003_animate_bird_chicken_3.png	1	1	1	chicken_3	0	68	n/a	NaN	0	0	n/a	0	0	465.668073	465.7680687	0.0999957
31816.75	0.0999934	116	non_foods\stim081_inanimate_clothing_gloves_1.png	1	1	1	gloves_1	0	136	n/a	NaN	0	0	n/a	0	0	465.8180772	465.9180706	0.0999934
31854.25	0.0999815	117	non_foods\stim018_animate_bird_penguin_2.png	1	1	1	penguin_2	0	226	n/a	NaN	0	0	n/a	0	0	465.968085	466.0680665	0.0999815
31891.75	0.0999964	118	non_foods\stim105_inanimate_furniture_chair_1.png	1	1	1	chair_1	0	60	n/a	NaN	0	0	n/a	0	0	466.118071	466.2180674	0.0999964
31929.25	0.0999877	119	foods\ice_cream_sandwich.jpg	1	1	1	ice_cream_sandwich	1	163	TF_061	0	0	0	n/a	0	0	466.2680747	466.3680624	0.0999877
31966.75	0.0999986	120	non_foods\stim139_inanimate_plants_tulip_3.png	1	1	1	tulip_3	0	305	n/a	NaN	0	0	n/a	0	0	466.4180648	466.5180634	0.0999986
32004.25	0.100009	121	foods\raw_sausage.jpg	1	1	1	raw_sausage	1	243	TF_131	0	0	0	n/a	0	0	466.5680818	466.6680908	0.100009
32041.75	0.0999852	122	foods\peach.jpg	1	1	1	peach	1	218	NF_079	1	0	0	n/a	0	0	466.7180723	466.8180575	0.0999852
32079.25	0.0999988	123	non_foods\stim119_inanimate_furniture_table_3.png	1	1	1	table_3	0	293	n/a	NaN	0	0	n/a	0	0	466.8680601	466.9680589	0.0999988
32116.75	0.0999958	124	non_foods\stim136_inanimate_plants_tree_4.png	1	1	1	tree_4	0	302	n/a	NaN	0	0	n/a	0	0	467.0180627	467.1180585	0.0999958
32154.25	0.0999884	125	foods\parmesan_cheese.jpg	1	1	1	parmesan_cheese	1	211	TF_091	0	0	0	n/a	0	0	467.1680651	467.2680535	0.0999884
32191.75	0.0999935	126	foods\lettuce.jpg	1	1	1	lettuce	1	178	NF_046	1	0	0	n/a	0	0	467.3180652	467.4180587	0.0999935
32229.25	0.0999872	127	foods\frankfurters.jpg	1	1	1	frankfurters	1	123	TF_156	0	0	0	n/a	0	0	467.4680639	467.5680511	0.0999872
32266.75	0.0999888	128	foods\brownie.jpg	1	1	1	brownie	1	34	TF_011	0	0	0	n/a	0	0	467.6180625	467.7180513	0.0999888
32304.25	0.0999927	129	non_foods\stim012_animate_bird_parrot_4.png	1	1	1	parrot_4	0	215	n/a	NaN	0	0	n/a	0	0	467.7680596	467.8680523	0.0999927
32341.75	0.0999956	130	non_foods\stim019_animate_bird_penguin_3.png	1	1	1	penguin_3	0	227	n/a	NaN	0	0	n/a	0	0	467.9180523	468.0180479	0.0999956
32379.25	0.1	131	non_foods\stim090_inanimate_clothing_jeans_2.png	1	1	1	jeans_2	0	165	n/a	NaN	0	0	n/a	0	0	468.0680524	468.1680524	0.1
32416.75	0.0999984	132	non_foods\stim153_inanimate_tools_scissors_1.png	1	1	1	scissors_1	0	258	n/a	NaN	0	0	n/a	0	0	468.2180484	468.3180468	0.0999984
32454.25	0.0999744	133	non_foods\stim134_inanimate_plants_tree_2.png	1	1	1	tree_2	0	300	n/a	NaN	0	0	n/a	0	0	468.3680833	468.4680577	0.0999744
32491.75	0.0999903	134	foods\green_olives.jpg	1	1	1	green_olives	1	148	TF_085	0	0	0	n/a	0	0	468.5180534	468.6180437	0.0999903
32529.25	0.099987	135	foods\cauliflower.jpg	1	1	1	cauliflower	1	57	NF_022	1	0	0	n/a	0	0	468.6680523	468.7680393	0.099987
32566.75	0.0999984	136	non_foods\stim008_animate_bird_duck_4.png	1	1	1	duck_4	0	114	n/a	NaN	0	0	n/a	0	0	468.8180443	468.9180427	0.0999984
32604.25	0.0999836	137	foods\pancakes.jpg	1	1	1	pancakes	1	209	TF_058	0	0	0	n/a	0	0	468.9680498	469.0680334	0.0999836
32641.75	0.0999877	138	foods\cuttlefish.jpg	1	1	1	cuttlefish	1	103	NF_093	1	0	0	n/a	0	0	469.1180494	469.2180371	0.0999877
32679.25	0.0999911	139	foods\cherry.jpg	1	1	1	cherry	1	64	NF_027	1	0	0	n/a	0	0	469.2680474	469.3680385	0.0999911
32716.75	0.1000118	140	non_foods\stim009_animate_bird_parrot_1.png	1	1	1	parrot_1	0	212	n/a	NaN	0	0	n/a	0	0	469.4180409	469.5180527	0.1000118
32754.25	0.0999774	141	foods\fried_calamari.jpg	1	1	1	fried_calamari	1	124	TF_020	0	0	0	n/a	0	0	469.5680621	469.6680395	0.0999774
32791.75	0.0999961	142	non_foods\stim004_animate_bird_chicken_4.png	1	1	1	chicken_4	0	69	n/a	NaN	0	0	n/a	0	0	469.7180388	469.8180349	0.0999961
32829.25	0.0999984	143	non_foods\stim130_inanimate_plants_sunflower_2.png	1	1	1	sunflower_2	0	287	n/a	NaN	0	0	n/a	0	0	469.8680305	469.9680289	0.0999984
32866.75	0.099999	144	non_foods\stim065_animate_mammal_giraffe_1.png	1	1	1	giraffe_1	0	132	n/a	NaN	0	0	n/a	0	0	470.0180335	470.1180325	0.099999
32904.25	0.0999654	145	foods\cracker.jpg	1	1	1	cracker	1	98	TF_043	0	0	0	n/a	0	0	470.1680627	470.2680281	0.0999654
32941.75	0.0999902	146	foods\red_cabbage.jpg	1	1	1	red_cabbage	1	245	NF_023	1	0	0	n/a	0	0	470.3180361	470.4180263	0.0999902
32979.25	0.0999966	147	non_foods\stim118_inanimate_furniture_table_2.png	1	1	1	table_2	0	292	n/a	NaN	0	0	n/a	0	0	470.4680308	470.5680274	0.0999966
33016.75	0.0999887	148	foods\lollies.jpg	1	1	1	lollies	1	183	TF_026	0	0	0	n/a	0	0	470.6180314	470.7180201	0.0999887
33054.25	0.0999925	149	foods\pork_loin_with_peas.jpg	1	1	1	pork_loin_with_peas	1	234	TF_003	0	0	0	n/a	0	0	470.7680311	470.8680236	0.0999925
33091.75	0.0999896	150	foods\lasagna.jpg	1	1	1	lasagna	1	174	TF_076	0	0	0	n/a	0	0	470.918032	471.0180216	0.0999896
33129.25	0.0999814	151	foods\oven-roasted_tomatoes.jpg	1	1	1	oven-roasted_tomatoes	1	203	TF_114	0	0	0	n/a	0	0	471.0680384	471.1680198	0.0999814
33166.75	0.1000108	152	non_foods\stim089_inanimate_clothing_jeans_1.png	1	1	1	jeans_1	0	164	n/a	NaN	0	0	n/a	0	0	471.2180225	471.3180333	0.1000108
33204.25	0.0999901	153	foods\mortadella.jpg	1	1	1	mortadella	1	192	TF_083	0	0	0	n/a	0	0	471.3680254	471.4680155	0.0999901
33241.75	0.0999955	154	non_foods\stim074_animate_mammal_monkey_2.png	1	1	1	monkey_2	0	189	n/a	NaN	0	0	n/a	0	0	471.5180205	471.618016	0.0999955
33279.25	0.099992	155	non_foods\stim084_inanimate_clothing_gloves_4.png	1	1	1	gloves_4	0	139	n/a	NaN	0	0	n/a	0	0	471.6680207	471.7680127	0.099992
33316.75	0.1000171	156	non_foods\stim079_animate_mammal_rhino_3.png	1	1	1	rhino_3	0	248	n/a	NaN	0	0	n/a	0	0	471.8180165	471.9180336	0.1000171
33766.75	0.0999948	157	non_foods\stim112_inanimate_furniture_closet_4.png	1	2	1	closet_4	0	84	n/a	NaN	0	0	n/a	0	0	473.6180102	473.718005	0.0999948
33804.25	0.0999769	158	non_foods\stim042_animate_insect_ant_2.png	1	2	1	ant_2	0	2	n/a	NaN	0	0	n/a	0	0	473.7680159	473.8679928	0.0999769
33841.75	0.0999985	159	non_foods\stim147_inanimate_tools_hammer_3.png	1	2	1	hammer_3	0	153	n/a	NaN	0	0	n/a	0	0	473.917994	474.0179925	0.0999985
33879.25	0.1000046	160	non_foods\stim137_inanimate_plants_tulip_1.png	1	2	1	tulip_1	0	303	n/a	NaN	0	0	n/a	0	0	474.0679946	474.1679992	0.1000046
33916.75	0.0999937	161	non_foods\stim106_inanimate_furniture_chair_2.png	1	2	1	chair_2	0	61	n/a	NaN	0	0	n/a	0	0	474.2179954	474.3179891	0.0999937
33954.25	0.099991	162	foods\chocolate_pudding.jpg	1	2	1	chocolate_pudding	1	78	TF_018	0	0	0	n/a	0	0	474.3679981	474.4679891	0.099991
33991.75	0.0999885	163	non_foods\stim096_inanimate_clothing_shirt_4.png	1	2	1	shirt_4	0	265	n/a	NaN	0	0	n/a	0	0	474.5179972	474.6179857	0.0999885
34029.25	0.0999975	164	non_foods\stim059_animate_insect_grasshopper_3.png	1	2	1	grasshopper_3	0	145	n/a	NaN	0	0	n/a	0	0	474.667987	474.7679845	0.0999975
34066.75	0.0999971	165	non_foods\stim113_inanimate_furniture_sofa_1.png	1	2	1	sofa_1	0	271	n/a	NaN	0	0	n/a	0	0	474.8180112	474.9180083	0.0999971
34104.25	0.0999967	166	non_foods\stim088_inanimate_clothing_hat_4.png	1	2	1	hat_4	0	158	n/a	NaN	0	0	n/a	0	0	474.9679866	475.0679833	0.0999967
34141.75	0.0999773	167	foods\museli_bars.jpg	1	2	1	museli_bars	1	193	TF_008	0	0	0	n/a	0	0	475.117983	475.2179603	0.0999773
34179.25	0.0999882	168	foods\pomegranate.jpg	1	2	1	pomegranate	1	232	NF_058	1	0	0	n/a	0	0	475.2679911	475.3679793	0.0999882
34216.75	0.0999977	169	foods\prawn.jpg	1	2	1	prawn	1	238	NF_041	1	0	0	n/a	0	0	475.4180006	475.5179983	0.0999977
34254.25	0.0999897	170	foods\hazelnuts.jpg	1	2	1	hazelnuts	1	159	NF_065	1	0	0	n/a	0	0	475.567989	475.6679787	0.0999897
34291.75	0.0999879	171	foods\pineapple.jpg	1	2	1	pineapple	1	231	NF_004	1	0	0	n/a	0	0	475.7179851	475.817973	0.0999879
34329.25	0.0999896	172	foods\broccoli.jpg	1	2	1	broccoli	1	29	NF_016	1	0	0	n/a	0	0	475.867985	475.9679746	0.0999896
34366.75	0.099986	173	foods\swordfish.jpg	1	2	1	swordfish	1	290	TF_101	0	0	0	n/a	0	0	476.0179836	476.1179696	0.099986
34404.25	0.1000087	174	non_foods\stim022_animate_human_baby_2.png	1	2	1	baby_2	0	11	n/a	NaN	0	0	n/a	0	0	476.1679628	476.2679715	0.1000087
34441.75	0.0999965	175	non_foods\stim030_animate_human_clown_2.png	1	2	1	clown_2	0	86	n/a	NaN	0	0	n/a	0	0	476.3179745	476.417971	0.0999965
34479.25	0.0999948	176	non_foods\stim033_animate_human_faces_1.png	1	2	1	faces_1	0	117	n/a	NaN	0	0	n/a	0	0	476.4679731	476.5679679	0.0999948
34516.75	0.1000062	177	foods\coffee_beans.jpg	1	2	1	coffee_beans	1	90	TF_029	0	0	0	n/a	0	0	476.6179777	476.7179839	0.1000062
34554.25	0.0999914	178	non_foods\stim140_inanimate_plants_tulip_4.png	1	2	1	tulip_4	0	306	n/a	NaN	1	0	n/a	0	0	476.7679693	476.8679607	0.0999914
34591.75	0.0999948	179	non_foods\stim063_animate_mammal_cow_3.png	1	2	1	cow_3	0	96	n/a	NaN	0	0	n/a	0	0	476.9179675	477.0179623	0.0999948
34629.25	0.0999976	180	foods\apricot.jpg	1	2	1	apricot	1	6	NF_002	1	0	1	a	0.3920946	1	477.0679683	477.1679659	0.0999976
34666.75	0.1000097	181	non_foods\stim078_animate_mammal_rhino_2.png	1	2	1	rhino_2	0	247	n/a	NaN	0	0	n/a	0	0	477.2179744	477.3179841	0.1000097
34704.25	0.0999925	182	non_foods\stim048_animate_insect_bug_4.png	1	2	1	bug_4	0	39	n/a	NaN	0	0	n/a	0	0	477.3679648	477.4679573	0.0999925
34741.75	0.0999786	183	non_foods\stim072_animate_mammal_kangaroo_4.png	1	2	1	kangaroo_4	0	171	n/a	NaN	0	0	n/a	0	0	477.5179744	477.617953	0.0999786
34779.25	0.0999878	184	foods\grilled_chicken_breast.jpg	1	2	1	grilled_chicken_breast	1	149	TF_104	0	0	0	n/a	0	0	477.6679573	477.7679451	0.0999878
34816.75	0.0999987	185	non_foods\stim128_inanimate_plants_cactus_4.png	1	2	1	cactus_4	0	52	n/a	NaN	0	0	n/a	0	0	477.8179615	477.9179602	0.0999987
34854.25	0.0999877	186	foods\lentils.jpg	1	2	1	lentils	1	177	NF_047	1	0	0	n/a	0	0	477.967967	478.0679547	0.0999877
34891.75	0.1000004	187	non_foods\stim039_animate_human_sports_3.png	1	2	1	sports_3	0	280	n/a	NaN	0	0	n/a	0	0	478.1179543	478.2179547	0.1000004
34929.25	0.0999886	188	foods\papaya.jpg	1	2	1	papaya	1	210	NF_069	1	0	0	n/a	0	0	478.2679623	478.3679509	0.0999886
34966.75	0.0999888	189	non_foods\stim093_inanimate_clothing_shirt_1.png	1	2	1	shirt_1	0	262	n/a	NaN	0	0	n/a	0	0	478.4179586	478.5179474	0.0999888
35004.25	0.0999955	190	non_foods\stim131_inanimate_plants_sunflower_3.png	1	2	1	sunflower_3	0	288	n/a	NaN	0	0	n/a	0	0	478.5679526	478.6679481	0.0999955
35041.75	0.0999967	191	non_foods\stim157_inanimate_tools_wrench_1.png	1	2	1	wrench_1	0	310	n/a	NaN	0	0	n/a	0	0	478.7179509	478.8179476	0.0999967
35079.25	0.0999973	192	foods\kiwi.jpg	1	2	1	kiwi	1	172	NF_044	1	0	0	n/a	0	0	478.8679533	478.9679506	0.0999973
35116.75	0.0999733	193	foods\beetroots.jpg	1	2	1	beetroots	1	23	NF_015	1	0	0	n/a	0	0	479.0179774	479.1179507	0.0999733
35154.25	0.0999943	194	non_foods\stim111_inanimate_furniture_closet_3.png	1	2	1	closet_3	0	83	n/a	NaN	0	0	n/a	0	0	479.1679472	479.2679415	0.0999943
35191.75	0.099988	195	foods\taco.jpg	1	2	1	taco	1	295	TF_141	0	0	0	n/a	0	0	479.3179532	479.4179412	0.099988
35229.25	0.0999927	196	foods\chocolate_chip_cookies.jpg	1	2	1	chocolate_chip_cookies	1	76	TF_010	0	0	0	n/a	0	0	479.4679491	479.5679418	0.0999927
35266.75	0.0999853	197	foods\mandarin.jpg	1	2	1	mandarin	1	184	NF_052	1	0	0	n/a	0	0	479.617951	479.7179363	0.0999853
35304.25	0.099996	198	non_foods\stim124_inanimate_plants_bush_4.png	1	2	1	bush_4	0	43	n/a	NaN	0	0	n/a	0	0	479.7679373	479.8679333	0.099996
35341.75	0.0999915	199	non_foods\stim082_inanimate_clothing_gloves_2.png	1	2	1	gloves_2	0	137	n/a	NaN	0	0	n/a	0	0	479.9179431	480.0179346	0.0999915
35379.25	0.0999786	200	foods\licorice.jpg	1	2	1	licorice	1	179	TF_078	0	0	0	n/a	0	0	480.0679432	480.1679218	0.0999786
35416.75	0.0999982	201	non_foods\stim057_animate_insect_grasshopper_1.png	1	2	1	grasshopper_1	0	143	n/a	NaN	0	0	n/a	0	0	480.2179335	480.3179317	0.0999982
35454.25	0.0999864	202	foods\omelette.jpg	1	2	1	omelette	1	199	TF_057	0	0	0	n/a	0	0	480.3679452	480.4679316	0.0999864
35491.75	0.0999868	203	foods\mushroom.jpg	1	2	1	mushroom	1	194	NF_039	1	0	0	n/a	0	0	480.5179395	480.6179263	0.0999868
35529.25	0.0999962	204	foods\egg.jpg	1	2	1	egg	1	115	NF_095	1	0	0	n/a	0	0	480.6679389	480.7679351	0.0999962
35566.75	0.0999639	205	foods\cooked_prawn.jpg	1	2	1	cooked_prawn	1	92	TF_060	0	0	0	n/a	0	0	480.8179607	480.9179246	0.0999639
35604.25	0.0999983	206	non_foods\stim037_animate_human_sports_1.png	1	2	1	sports_1	0	278	n/a	NaN	0	0	n/a	0	0	480.9679269	481.0679252	0.0999983
35641.75	0.0999923	207	foods\ice_cream.jpg	1	2	1	ice_cream	1	162	TF_062	0	0	0	n/a	0	0	481.1179332	481.2179255	0.0999923
35679.25	0.0999877	208	foods\baguette.jpg	1	2	1	baguette	1	15	TF_006	0	0	0	n/a	0	0	481.267932	481.3679197	0.0999877
35716.75	0.0999952	209	non_foods\stim150_inanimate_tools_pan_2.png	1	2	1	pan_2	0	206	n/a	NaN	0	0	n/a	0	0	481.4179275	481.5179227	0.0999952
35754.25	0.0999801	210	non_foods\stim149_inanimate_tools_pan_1.png	1	2	1	pan_1	0	205	n/a	NaN	0	0	n/a	0	0	481.5679395	481.6679196	0.0999801
35791.75	0.1000236	211	non_foods\stim144_inanimate_tools_broom_4.png	1	2	1	broom_4	0	33	n/a	NaN	0	0	n/a	0	0	481.717895	481.8179186	0.1000236
35829.25	0.1000029	212	foods\toast.jpg	1	2	1	toast	1	296	TF_053	0	0	0	n/a	0	0	481.8679316	481.9679345	0.1000029
35866.75	0.0999959	213	non_foods\stim060_animate_insect_grasshopper_4.png	1	2	1	grasshopper_4	0	146	n/a	NaN	0	0	n/a	0	0	482.0179184	482.1179143	0.0999959
35904.25	0.0999989	214	non_foods\stim031_animate_human_clown_3.png	1	2	1	clown_3	0	87	n/a	NaN	0	0	n/a	0	0	482.1679182	482.2679171	0.0999989
35941.75	0.0999684	215	foods\steak.jpg	1	2	1	steak	1	283	TF_013	0	0	0	n/a	0	0	482.3179464	482.4179148	0.0999684
35979.25	0.1000123	216	foods\rockmelon.jpg	1	2	1	rockmelon	1	254	NF_060	1	0	0	n/a	0	0	482.4679183	482.5679306	0.1000123
36016.75	0.0999877	217	foods\pickles.jpg	1	2	1	pickles	1	230	TF_134	0	0	0	n/a	0	0	482.6179237	482.7179114	0.0999877
36054.25	0.0999929	218	non_foods\stim055_animate_insect_dragonfly_3.png	1	2	1	dragonfly_3	0	108	n/a	NaN	0	0	n/a	0	0	482.7679126	482.8679055	0.0999929
36091.75	0.0999943	219	non_foods\stim014_animate_bird_peacock_2.png	1	2	1	peacock_2	0	220	n/a	NaN	0	0	n/a	0	0	482.9179156	483.0179099	0.0999943
36129.25	0.0999801	220	non_foods\stim091_inanimate_clothing_jeans_3.png	1	2	1	jeans_3	0	166	n/a	NaN	0	0	n/a	0	0	483.067913	483.1678931	0.0999801
36166.75	0.0999888	221	foods\celery.jpg	1	2	1	celery	1	58	NF_092	1	0	0	n/a	0	0	483.2179144	483.3179032	0.0999888
36204.25	0.0999886	222	foods\pumpkin.jpg	1	2	1	pumpkin	1	239	NF_101	1	0	0	n/a	0	0	483.367915	483.4679036	0.0999886
36241.75	0.0999893	223	foods\toasted_bread_with_tomatoes.jpg	1	2	1	toasted_bread_with_tomatoes	1	297	TF_017	0	0	0	n/a	0	0	483.5179127	483.617902	0.0999893
36279.25	0.1000206	224	foods\onion.jpg	1	2	1	onion	1	200	NF_029	1	0	0	n/a	0	0	483.6679114	483.767932	0.1000206
36316.75	0.0999976	225	non_foods\stim047_animate_insect_bug_3.png	1	2	1	bug_3	0	38	n/a	NaN	0	0	n/a	0	0	483.8179033	483.9179009	0.0999976
36354.25	0.0999916	226	foods\rice.jpg	1	2	1	rice	1	250	TF_121	0	0	0	n/a	0	0	483.9679053	484.0678969	0.0999916
36391.75	0.0999884	227	foods\lobster.jpg	1	2	1	lobster	1	182	NF_007	1	0	0	n/a	0	0	484.1179077	484.2178961	0.0999884
36429.25	0.100018	228	foods\lime.jpg	1	2	1	lime	1	180	NF_048	1	0	0	n/a	0	0	484.2679074	484.3679254	0.100018
36466.75	0.0999594	229	foods\eggplant.jpg	1	2	1	eggplant	1	116	NF_059	1	1	0	n/a	0	0	484.4179313	484.5178907	0.0999594
36504.25	0.099991	230	non_foods\stim155_inanimate_tools_scissors_3.png	1	2	1	scissors_3	0	260	n/a	NaN	0	0	n/a	0	0	484.5679007	484.6678917	0.099991
36541.75	0.0999938	231	non_foods\stim117_inanimate_furniture_table_1.png	1	2	1	table_1	0	291	n/a	NaN	0	1	a	0.3920547	1	484.7178957	484.8178895	0.0999938
36579.25	0.0999851	232	foods\garlic.jpg	1	2	1	garlic	1	130	NF_001	1	0	0	n/a	0	0	484.8679016	484.9678867	0.0999851
36616.75	0.0999929	233	non_foods\stim062_animate_mammal_cow_2.png	1	2	1	cow_2	0	95	n/a	NaN	0	0	n/a	0	0	485.017893	485.1178859	0.0999929
36654.25	0.1000012	234	foods\pasta_carbonara.jpg	1	2	1	pasta_carbonara	1	216	TF_027	0	0	0	n/a	0	0	485.1678841	485.2678853	0.1000012
36691.75	0.0999915	235	foods\carrot.jpg	1	2	1	carrot	1	56	NF_019	1	0	0	n/a	0	0	485.3178954	485.4178869	0.0999915
36729.25	0.0999951	236	non_foods\stim100_inanimate_clothing_socks_4.png	1	2	1	socks_4	0	270	n/a	NaN	0	0	n/a	0	0	485.4678987	485.5678938	0.0999951
36766.75	0.0999959	237	non_foods\stim020_animate_bird_penguin_4.png	1	2	1	penguin_4	0	228	n/a	NaN	0	0	n/a	0	0	485.6178843	485.7178802	0.0999959
36804.25	0.0999969	238	non_foods\stim123_inanimate_plants_bush_3.png	1	2	1	bush_3	0	42	n/a	NaN	0	0	n/a	0	0	485.7678837	485.8678806	0.0999969
36841.75	0.0999861	239	foods\chestnut.jpg	1	2	1	chestnut	1	65	NF_020	1	0	0	n/a	0	0	485.9178892	486.0178753	0.0999861
36879.25	0.1000134	240	non_foods\stim053_animate_insect_dragonfly_1.png	1	2	1	dragonfly_1	0	106	n/a	NaN	0	0	n/a	0	0	486.0678793	486.1678927	0.1000134
36916.75	0.0999813	241	non_foods\stim159_inanimate_tools_wrench_3.png	1	2	1	wrench_3	0	312	n/a	NaN	0	0	n/a	0	0	486.2178932	486.3178745	0.0999813
36954.25	0.0999927	242	non_foods\stim050_animate_insect_butterfly_2.png	1	2	1	butterfly_2	0	45	n/a	NaN	0	0	n/a	0	0	486.3678784	486.4678711	0.0999927
36991.75	0.0999877	243	non_foods\stim094_inanimate_clothing_shirt_2.png	1	2	1	shirt_2	0	263	n/a	NaN	0	0	n/a	0	0	486.517883	486.6178707	0.0999877
37029.25	0.0999806	244	foods\chocolate_pralines.jpg	1	2	1	chocolate_pralines	1	77	TF_035	0	0	0	n/a	0	0	486.6678899	486.7678705	0.0999806
37066.75	0.0999952	245	non_foods\stim035_animate_human_faces_3.png	1	2	1	faces_3	0	119	n/a	NaN	0	0	n/a	0	0	486.8178783	486.9178735	0.0999952
37104.25	0.0999857	246	foods\lemon_meringue_pie.jpg	1	2	1	lemon_meringue_pie	1	176	TF_151	0	0	0	n/a	0	0	486.9678799	487.0678656	0.0999857
37141.75	0.0999971	247	non_foods\stim156_inanimate_tools_scissors_4.png	1	2	1	scissors_4	0	261	n/a	NaN	0	0	n/a	0	0	487.1178699	487.217867	0.0999971
37179.25	0.099982	248	non_foods\stim034_animate_human_faces_2.png	1	2	1	faces_2	0	118	n/a	NaN	0	0	n/a	0	0	487.2678853	487.3678673	0.099982
37216.75	0.0999947	249	non_foods\stim158_inanimate_tools_wrench_2.png	1	2	1	wrench_2	0	311	n/a	NaN	0	0	n/a	0	0	487.4178688	487.5178635	0.0999947
37254.25	0.1000015	250	non_foods\stim154_inanimate_tools_scissors_2.png	1	2	1	scissors_2	0	259	n/a	NaN	0	0	n/a	0	0	487.5678642	487.6678657	0.1000015
37291.75	0.0999956	251	non_foods\stim067_animate_mammal_giraffe_3.png	1	2	1	giraffe_3	0	134	n/a	NaN	0	0	n/a	0	0	487.7178649	487.8178605	0.0999956
37329.25	0.1000359	252	foods\baked_cod_with_carrots_and_green_beans.jpg	1	2	1	baked_cod_with_carrots_and_green_beans	1	16	TF_082	0	0	0	n/a	0	0	487.8678743	487.9679102	0.1000359
37366.75	0.0999986	253	non_foods\stim126_inanimate_plants_cactus_2.png	1	2	1	cactus_2	0	50	n/a	NaN	0	0	n/a	0	0	488.0178627	488.1178613	0.0999986
37404.25	0.1000024	254	foods\calamari.jpg	1	2	1	calamari	1	53	TF_019	0	0	0	n/a	0	0	488.1678547	488.2678571	0.1000024
37441.75	0.0999983	255	non_foods\stim013_animate_bird_peacock_1.png	1	2	1	peacock_1	0	219	n/a	NaN	0	0	n/a	0	0	488.3178611	488.4178594	0.0999983
37479.25	0.0999917	256	non_foods\stim129_inanimate_plants_sunflower_1.png	1	2	1	sunflower_1	0	286	n/a	NaN	0	0	n/a	0	0	488.4678616	488.5678533	0.0999917
37516.75	0.0999959	257	non_foods\stim120_inanimate_furniture_table_4.png	1	2	1	table_4	0	294	n/a	NaN	0	0	n/a	0	0	488.6178544	488.7178503	0.0999959
37554.25	0.0999928	258	foods\smoked_ham.jpg	1	2	1	smoked_ham	1	266	TF_118	0	0	0	n/a	0	0	488.7678619	488.8678547	0.0999928
37591.75	0.0999877	259	foods\blackberry.jpg	1	2	1	blackberry	1	24	NF_063	1	0	0	n/a	0	0	488.9178616	489.0178493	0.0999877
37629.25	0.1000029	260	non_foods\stim075_animate_mammal_monkey_3.png	1	2	1	monkey_3	0	190	n/a	NaN	0	0	n/a	0	0	489.0678574	489.1678603	0.1000029
37666.75	0.1000107	261	non_foods\stim049_animate_insect_butterfly_1.png	1	2	1	butterfly_1	0	44	n/a	NaN	0	0	n/a	0	0	489.2178358	489.3178465	0.1000107
37704.25	0.0999904	262	foods\grapefruits.jpg	1	2	1	grapefruits	1	141	NF_085	1	0	0	n/a	0	0	489.3678542	489.4678446	0.0999904
37741.75	0.099999	263	non_foods\stim073_animate_mammal_monkey_1.png	1	2	1	monkey_1	0	188	n/a	NaN	0	0	n/a	0	0	489.5178485	489.6178475	0.099999
37779.25	0.0999852	264	foods\brie.jpg	1	2	1	brie	1	28	TF_016	0	0	0	n/a	0	0	489.667874	489.7678592	0.0999852
37816.75	0.0999883	265	foods\gnocchi.jpg	1	2	1	gnocchi	1	140	TF_064	0	0	0	n/a	0	0	489.8178521	489.9178404	0.0999883
37854.25	0.0999878	266	foods\cabbage.jpg	1	2	1	cabbage	1	48	NF_025	1	0	0	n/a	0	0	489.9678541	490.0678419	0.0999878
37891.75	0.0999959	267	non_foods\stim007_animate_bird_duck_3.png	1	2	1	duck_3	0	113	n/a	NaN	0	0	n/a	0	0	490.1178446	490.2178405	0.0999959
37929.25	0.0999917	268	foods\dried_figs.jpg	1	2	1	dried_figs	1	110	TF_054	0	0	0	n/a	0	0	490.2678464	490.3678381	0.0999917
37966.75	0.0999944	269	non_foods\stim036_animate_human_faces_4.png	1	2	1	faces_4	0	120	n/a	NaN	0	0	n/a	0	0	490.4178419	490.5178363	0.0999944
38004.25	0.0999933	270	non_foods\stim103_inanimate_furniture_bed_3.png	1	2	1	bed_3	0	21	n/a	NaN	0	0	n/a	0	0	490.5678403	490.6678336	0.0999933
38041.75	0.1000193	271	non_foods\stim087_inanimate_clothing_hat_3.png	1	2	1	hat_3	0	157	n/a	NaN	0	0	n/a	0	0	490.7178384	490.8178577	0.1000193
38079.25	0.0999917	272	non_foods\stim109_inanimate_furniture_closet_1.png	1	2	1	closet_1	0	81	n/a	NaN	0	0	n/a	0	0	490.867838	490.9678297	0.0999917
38116.75	0.1000015	273	non_foods\stim160_inanimate_tools_wrench_4.png	1	2	1	wrench_4	0	313	n/a	NaN	0	0	n/a	0	0	491.0178315	491.117833	0.1000015
38154.25	0.0999842	274	foods\cereal.jpg	1	2	1	cereal	1	59	TF_028	0	0	0	n/a	0	0	491.1678485	491.2678327	0.0999842
38191.75	0.0999978	275	foods\cannoli.jpg	1	2	1	cannoli	1	54	TF_022	0	0	0	n/a	0	0	491.3178394	491.4178372	0.0999978
38229.25	0.0999757	276	non_foods\stim143_inanimate_tools_broom_3.png	1	2	1	broom_3	0	32	n/a	NaN	0	0	n/a	0	0	491.4678523	491.567828	0.0999757
38266.75	0.0999874	277	foods\oyster.jpg	1	2	1	oyster	1	204	NF_067	1	0	0	n/a	0	0	491.6178374	491.7178248	0.0999874
38304.25	0.0999943	278	non_foods\stim146_inanimate_tools_hammer_2.png	1	2	1	hammer_2	0	152	n/a	NaN	0	0	n/a	0	0	491.7678279	491.8678222	0.0999943
38341.75	0.0999896	279	foods\lamb_chops.jpg	1	2	1	lamb_chops	1	173	TF_040	0	0	0	n/a	0	0	491.9178331	492.0178227	0.0999896
38379.25	0.0999741	280	foods\donut.jpg	1	2	1	donut	1	105	TF_032	0	1	0	n/a	0	0	492.0678299	492.167804	0.0999741
38416.75	0.0999892	281	foods\meatballs.jpg	1	2	1	meatballs	1	186	TF_112	0	0	0	n/a	0	0	492.2178308	492.31782	0.0999892
38454.25	0.0999878	282	foods\red_beans.jpg	1	2	1	red_beans	1	244	NF_033	1	0	1	a	0.3920965	1	492.3678317	492.4678195	0.0999878
38491.75	0.100001	283	foods\coconut.jpg	1	2	1	coconut	1	89	NF_030	1	0	0	n/a	0	0	492.5178284	492.6178294	0.100001
38529.25	0.0999877	284	foods\salmon.jpg	1	2	1	salmon	1	256	TF_130	0	0	0	n/a	0	0	492.6678266	492.7678143	0.0999877
38566.75	0.0999887	285	foods\cinnamon.jpg	1	2	1	cinnamon	1	79	NF_017	1	0	0	n/a	0	0	492.8178237	492.9178124	0.0999887
38604.25	0.0999924	286	non_foods\stim064_animate_mammal_cow_4.png	1	2	1	cow_4	0	97	n/a	NaN	0	0	n/a	0	0	492.9678181	493.0678105	0.0999924
38641.75	0.1000012	287	non_foods\stim121_inanimate_plants_bush_1.png	1	2	1	bush_1	0	40	n/a	NaN	0	0	n/a	0	0	493.1178186	493.2178198	0.1000012
38679.25	0.0999669	288	foods\oregano.jpg	1	2	1	oregano	1	202	NF_066	1	0	0	n/a	0	0	493.2678424	493.3678093	0.0999669
38716.75	0.0999963	289	non_foods\stim122_inanimate_plants_bush_2.png	1	2	1	bush_2	0	41	n/a	NaN	0	0	n/a	0	0	493.417813	493.5178093	0.0999963
38754.25	0.0999981	290	non_foods\stim058_animate_insect_grasshopper_2.png	1	2	1	grasshopper_2	0	144	n/a	NaN	0	0	n/a	0	0	493.567807	493.6678051	0.0999981
38791.75	0.0999962	291	non_foods\stim127_inanimate_plants_cactus_3.png	1	2	1	cactus_3	0	51	n/a	NaN	0	0	n/a	0	0	493.7178093	493.8178055	0.0999962
38829.25	0.0999936	292	non_foods\stim027_animate_human_child_3.png	1	2	1	child_3	0	72	n/a	NaN	0	0	n/a	0	0	493.8678082	493.9678018	0.0999936
38866.75	0.0999895	293	foods\chocolate_bar.jpg	1	2	1	chocolate_bar	1	75	TF_033	0	0	0	n/a	0	0	494.0178151	494.1178046	0.0999895
38904.25	0.1000099	294	non_foods\stim114_inanimate_furniture_sofa_2.png	1	2	1	sofa_2	0	272	n/a	NaN	0	0	n/a	0	0	494.1677904	494.2678003	0.1000099
38941.75	0.1000101	295	non_foods\stim133_inanimate_plants_tree_1.png	1	2	1	tree_1	0	299	n/a	NaN	0	0	n/a	0	0	494.3178046	494.4178147	0.1000101
38979.25	0.0999986	296	non_foods\stim066_animate_mammal_giraffe_2.png	1	2	1	giraffe_2	0	133	n/a	NaN	0	0	n/a	0	0	494.4677993	494.5677979	0.0999986
39016.75	0.0999999	297	non_foods\stim026_animate_human_child_2.png	1	2	1	child_2	0	71	n/a	NaN	0	0	n/a	0	0	494.6177983	494.7177982	0.0999999
39054.25	0.0999867	298	foods\mango.jpg	1	2	1	mango	1	185	NF_054	1	0	0	n/a	0	0	494.7678087	494.8677954	0.0999867
39091.75	0.1000043	299	foods\chilli.jpg	1	2	1	chilli	1	74	NF_073	1	0	0	n/a	0	0	494.9178037	495.017808	0.1000043
39129.25	0.0999596	300	foods\raisins.jpg	1	2	1	raisins	1	241	NF_096	1	0	0	n/a	0	0	495.0678268	495.1677864	0.0999596
39166.75	0.0999904	301	foods\radish.jpg	1	2	1	radish	1	240	NF_090	1	0	0	n/a	0	0	495.2178015	495.3177919	0.0999904
39204.25	0.0999918	302	foods\roasted_chicken.jpg	1	2	1	roasted_chicken	1	253	TF_109	0	0	0	n/a	0	0	495.367798	495.4677898	0.0999918
39241.75	0.0999884	303	foods\savory_pie.jpg	1	2	1	savory_pie	1	257	TF_146	0	0	0	n/a	0	0	495.5178019	495.6177903	0.0999884
39279.25	0.0999902	304	non_foods\stim015_animate_bird_peacock_3.png	1	2	1	peacock_3	0	221	n/a	NaN	0	0	n/a	0	0	495.6677949	495.7677851	0.0999902
39316.75	0.0999929	305	non_foods\stim046_animate_insect_bug_2.png	1	2	1	bug_2	0	37	n/a	NaN	0	0	n/a	0	0	495.8177928	495.9177857	0.0999929
39354.25	0.0999925	306	non_foods\stim076_animate_mammal_monkey_4.png	1	2	1	monkey_4	0	191	n/a	NaN	0	0	n/a	0	0	495.9677903	496.0677828	0.0999925
39391.75	0.0999924	307	foods\octopus.jpg	1	2	1	octopus	1	198	TF_113	0	0	0	n/a	0	0	496.1177923	496.2177847	0.0999924
39429.25	0.0999897	308	foods\spring_onions.jpg	1	2	1	spring_onions	1	282	NF_086	1	0	0	n/a	0	0	496.2677949	496.3677846	0.0999897
39466.75	0.0999883	309	foods\grapes.jpg	1	2	1	grapes	1	142	NF_098	1	0	0	n/a	0	0	496.4177893	496.5177776	0.0999883
39504.25	0.0999953	310	non_foods\stim102_inanimate_furniture_bed_2.png	1	2	1	bed_2	0	20	n/a	NaN	0	0	n/a	0	0	496.5677832	496.6677785	0.0999953
39541.75	0.1000095	311	foods\bread.jpg	1	2	1	bread	1	26	TF_089	0	0	0	n/a	0	0	496.7177878	496.8177973	0.1000095
39579.25	0.0999675	312	foods\nougat.jpg	1	2	1	nougat	1	197	TF_144	0	0	0	n/a	0	0	496.8678088	496.9677763	0.0999675
39616.75	0.0999878	313	foods\cupcake.jpg	1	2	1	cupcake	1	102	TF_050	0	0	0	n/a	0	0	497.0177891	497.1177769	0.0999878
40041.75	0.0999873	314	non_foods\stim003_animate_bird_chicken_3.png	1	3	1	chicken_3	0	68	n/a	NaN	0	0	n/a	0	0	498.7177714	498.8177587	0.0999873
40079.25	0.0999965	315	foods\ice_cream.jpg	1	3	1	ice_cream	1	162	TF_062	0	0	0	n/a	0	0	498.8677692	498.9677657	0.0999965
40116.75	0.0999642	316	foods\bread_roll.jpg	1	3	1	bread_roll	1	27	TF_090	0	0	0	n/a	0	0	499.0177928	499.117757	0.0999642
40154.25	0.0999937	317	non_foods\stim109_inanimate_furniture_closet_1.png	1	3	1	closet_1	0	81	n/a	NaN	0	0	n/a	0	0	499.1677607	499.2677544	0.0999937
40191.75	0.0999909	318	foods\ice_cream_sandwich.jpg	1	3	1	ice_cream_sandwich	1	163	TF_061	0	0	0	n/a	0	0	499.3177629	499.4177538	0.0999909
40229.25	0.0999901	319	non_foods\stim021_animate_human_baby_1.png	1	3	1	baby_1	0	10	n/a	NaN	0	0	n/a	0	0	499.4677593	499.5677494	0.0999901
40266.75	0.0999891	320	foods\onion.jpg	1	3	1	onion	1	200	NF_029	1	0	0	n/a	0	0	499.6177599	499.717749	0.0999891
40304.25	0.0999911	321	non_foods\stim125_inanimate_plants_cactus_1.png	1	3	1	cactus_1	0	49	n/a	NaN	0	0	n/a	0	0	499.7677601	499.8677512	0.0999911
40341.75	0.0999914	322	foods\waffle.jpg	1	3	1	waffle	1	308	TF_030	0	0	0	n/a	0	0	499.9177571	500.0177485	0.0999914
40379.25	0.1000007	323	foods\garlic.jpg	1	3	1	garlic	1	130	NF_001	1	0	0	n/a	0	0	500.0677562	500.1677569	0.1000007
40416.75	0.0999838	324	foods\spinach.jpg	1	3	1	spinach	1	277	NF_094	1	0	0	n/a	0	0	500.2177587	500.3177425	0.0999838
40454.25	0.0999983	325	non_foods\stim005_animate_bird_duck_1.png	1	3	1	duck_1	0	111	n/a	NaN	0	0	n/a	0	0	500.3677456	500.4677439	0.0999983
40491.75	0.0999902	326	foods\swordfish.jpg	1	3	1	swordfish	1	290	TF_101	0	0	0	n/a	0	0	500.5177527	500.6177429	0.0999902
40529.25	0.1000123	327	non_foods\stim131_inanimate_plants_sunflower_3.png	1	3	1	sunflower_3	0	288	n/a	NaN	0	0	n/a	0	0	500.6677433	500.7677556	0.1000123
40566.75	0.0999774	328	non_foods\stim118_inanimate_furniture_table_2.png	1	3	1	table_2	0	292	n/a	NaN	0	0	n/a	0	0	500.8177649	500.9177423	0.0999774
40604.25	0.0999826	329	foods\potatoes.jpg	1	3	1	potatoes	1	237	NF_071	1	0	0	n/a	0	0	500.9677526	501.0677352	0.0999826
40641.75	0.0999867	330	foods\artichoke.jpg	1	3	1	artichoke	1	7	NF_018	1	0	0	n/a	0	0	501.1177461	501.2177328	0.0999867
40679.25	0.0999966	331	non_foods\stim001_animate_bird_chicken_1.png	1	3	1	chicken_1	0	66	n/a	NaN	0	0	n/a	0	0	501.2677403	501.3677369	0.0999966
40716.75	0.0999943	332	non_foods\stim031_animate_human_clown_3.png	1	3	1	clown_3	0	87	n/a	NaN	0	0	n/a	0	0	501.4177401	501.5177344	0.0999943
40754.25	0.0999958	333	non_foods\stim075_animate_mammal_monkey_3.png	1	3	1	monkey_3	0	190	n/a	NaN	0	0	n/a	0	0	501.567736	501.6677318	0.0999958
40791.75	0.0999984	334	non_foods\stim054_animate_insect_dragonfly_2.png	1	3	1	dragonfly_2	0	107	n/a	NaN	0	0	n/a	0	0	501.717733	501.8177314	0.0999984
40829.25	0.0999934	335	non_foods\stim112_inanimate_furniture_closet_4.png	1	3	1	closet_4	0	84	n/a	NaN	1	0	n/a	0	0	501.867738	501.9677314	0.0999934
40866.75	0.0999911	336	foods\almonds.jpg	1	3	1	almonds	1	0	NF_053	1	0	0	n/a	0	0	502.0177397	502.1177308	0.0999911
40904.25	0.0999891	337	foods\cooked_prawn.jpg	1	3	1	cooked_prawn	1	92	TF_060	0	0	1	a	0.3920929	1	502.1677361	502.2677252	0.0999891
40941.75	0.0999946	338	non_foods\stim035_animate_human_faces_3.png	1	3	1	faces_3	0	119	n/a	NaN	0	0	n/a	0	0	502.3177309	502.4177255	0.0999946
40979.25	0.1000315	339	non_foods\stim043_animate_insect_ant_3.png	1	3	1	ant_3	0	3	n/a	NaN	0	0	n/a	0	0	502.467727	502.5677585	0.1000315
41016.75	0.099961	340	non_foods\stim135_inanimate_plants_tree_3.png	1	3	1	tree_3	0	301	n/a	NaN	0	0	n/a	0	0	502.6177594	502.7177204	0.099961
41054.25	0.0999936	341	non_foods\stim087_inanimate_clothing_hat_3.png	1	3	1	hat_3	0	157	n/a	NaN	0	0	n/a	0	0	502.7677261	502.8677197	0.0999936
41091.75	0.1000047	342	non_foods\stim123_inanimate_plants_bush_3.png	1	3	1	bush_3	0	42	n/a	NaN	0	0	n/a	0	0	502.917714	503.0177187	0.1000047
41129.25	0.0999936	343	non_foods\stim017_animate_bird_penguin_1.png	1	3	1	penguin_1	0	225	n/a	NaN	0	0	n/a	0	0	503.0677244	503.167718	0.0999936
41166.75	0.0999977	344	non_foods\stim077_animate_mammal_rhino_1.png	1	3	1	rhino_1	0	246	n/a	NaN	0	0	n/a	0	0	503.2177213	503.317719	0.0999977
41204.25	0.0999929	345	non_foods\stim040_animate_human_sports_4.png	1	3	1	sports_4	0	281	n/a	NaN	0	0	n/a	0	0	503.3677184	503.4677113	0.0999929
41241.75	0.099996	346	non_foods\stim088_inanimate_clothing_hat_4.png	1	3	1	hat_4	0	158	n/a	NaN	0	0	n/a	0	0	503.5177189	503.6177149	0.099996
41279.25	0.0999661	347	foods\dates.jpg	1	3	1	dates	1	104	NF_032	1	0	0	n/a	0	0	503.6677444	503.7677105	0.0999661
41316.75	0.0999991	348	non_foods\stim142_inanimate_tools_broom_2.png	1	3	1	broom_2	0	31	n/a	NaN	0	0	n/a	0	0	503.8177125	503.9177116	0.0999991
41354.25	0.0999845	349	foods\pomegranate.jpg	1	3	1	pomegranate	1	232	NF_058	1	0	0	n/a	0	0	503.9677256	504.0677101	0.0999845
41391.75	0.0999888	350	foods\spaghetti_with_olives_and_capers.jpg	1	3	1	spaghetti_with_olives_and_capers	1	276	TF_135	0	0	0	n/a	0	0	504.1177212	504.21771	0.0999888
41429.25	0.1000033	351	foods\brownie.jpg	1	3	1	brownie	1	34	TF_011	0	0	0	n/a	0	0	504.2677168	504.3677201	0.1000033
41466.75	0.0999785	352	non_foods\stim056_animate_insect_dragonfly_4.png	1	3	1	dragonfly_4	0	109	n/a	NaN	0	0	n/a	0	0	504.4177272	504.5177057	0.0999785
41504.25	0.0999942	353	non_foods\stim050_animate_insect_butterfly_2.png	1	3	1	butterfly_2	0	45	n/a	NaN	0	0	n/a	0	0	504.5677092	504.6677034	0.0999942
41541.75	0.1000051	354	foods\octopus.jpg	1	3	1	octopus	1	198	TF_113	0	0	0	n/a	0	0	504.7177169	504.817722	0.1000051
41579.25	0.0999928	355	foods\parmesan_cheese.jpg	1	3	1	parmesan_cheese	1	211	TF_091	0	0	0	n/a	0	0	504.8677121	504.9677049	0.0999928
41616.75	0.0999892	356	foods\peach.jpg	1	3	1	peach	1	218	NF_079	1	0	0	n/a	0	0	505.0177118	505.117701	0.0999892
41654.25	0.0999922	357	non_foods\stim104_inanimate_furniture_bed_4.png	1	3	1	bed_4	0	22	n/a	NaN	0	0	n/a	0	0	505.1677045	505.2676967	0.0999922
41691.75	0.099999	358	non_foods\stim103_inanimate_furniture_bed_3.png	1	3	1	bed_3	0	21	n/a	NaN	0	0	n/a	0	0	505.3176979	505.4176969	0.099999
41729.25	0.0999805	359	foods\baked_lamb_with_potatoes.jpg	1	3	1	baked_lamb_with_potatoes	1	17	TF_001	0	0	0	n/a	0	0	505.4677177	505.5676982	0.0999805
41766.75	0.0999857	360	foods\roasted_chicken.jpg	1	3	1	roasted_chicken	1	253	TF_109	0	0	0	n/a	0	0	505.6177071	505.7176928	0.0999857
41804.25	0.0999868	361	foods\museli_bars.jpg	1	3	1	museli_bars	1	193	TF_008	0	0	0	n/a	0	0	505.7677038	505.8676906	0.0999868
41841.75	0.0999882	362	foods\mango.jpg	1	3	1	mango	1	185	NF_054	1	0	0	n/a	0	0	505.9177032	506.0176914	0.0999882
41879.25	0.1000321	363	non_foods\stim105_inanimate_furniture_chair_1.png	1	3	1	chair_1	0	60	n/a	NaN	0	0	n/a	0	0	506.0676996	506.1677317	0.1000321
41916.75	0.0999914	364	foods\cooked_ham.jpg	1	3	1	cooked_ham	1	91	TF_116	0	0	0	n/a	0	0	506.2176982	506.3176896	0.0999914
41954.25	0.099986	365	foods\pickles.jpg	1	3	1	pickles	1	230	TF_134	0	0	0	n/a	0	0	506.3677008	506.4676868	0.099986
41991.75	0.0999968	366	non_foods\stim080_animate_mammal_rhino_4.png	1	3	1	rhino_4	0	249	n/a	NaN	0	0	n/a	0	0	506.5176891	506.6176859	0.0999968
42029.25	0.0999919	367	foods\cream_donuts.jpg	1	3	1	cream_donuts	1	99	TF_014	0	0	0	n/a	0	0	506.667695	506.7676869	0.0999919
42066.75	0.0999845	368	foods\omelette.jpg	1	3	1	omelette	1	199	TF_057	0	0	0	n/a	0	0	506.8176958	506.9176803	0.0999845
42104.25	0.0999938	369	non_foods\stim119_inanimate_furniture_table_3.png	1	3	1	table_3	0	293	n/a	NaN	0	0	n/a	0	0	506.967685	507.0676788	0.0999938
42141.75	0.1000208	370	non_foods\stim158_inanimate_tools_wrench_2.png	1	3	1	wrench_2	0	311	n/a	NaN	0	0	n/a	0	0	507.1176846	507.2177054	0.1000208
42179.25	0.0999935	371	non_foods\stim034_animate_human_faces_2.png	1	3	1	faces_2	0	118	n/a	NaN	0	0	n/a	0	0	507.2676843	507.3676778	0.0999935
42216.75	0.0999962	372	non_foods\stim074_animate_mammal_monkey_2.png	1	3	1	monkey_2	0	189	n/a	NaN	0	0	n/a	0	0	507.4176815	507.5176777	0.0999962
42254.25	0.0999949	373	non_foods\stim053_animate_insect_dragonfly_1.png	1	3	1	dragonfly_1	0	106	n/a	NaN	0	0	n/a	0	0	507.5676807	507.6676756	0.0999949
42291.75	0.0999963	374	non_foods\stim020_animate_bird_penguin_4.png	1	3	1	penguin_4	0	228	n/a	NaN	0	0	n/a	0	0	507.7176817	507.817678	0.0999963
42329.25	0.0999893	375	non_foods\stim055_animate_insect_dragonfly_3.png	1	3	1	dragonfly_3	0	108	n/a	NaN	0	0	n/a	0	0	507.8677041	507.9676934	0.0999893
42366.75	0.0999954	376	non_foods\stim093_inanimate_clothing_shirt_1.png	1	3	1	shirt_1	0	262	n/a	NaN	0	0	n/a	0	0	508.017676	508.1176714	0.0999954
42404.25	0.1000469	377	foods\baked_cod_with_carrots_and_green_beans.jpg	1	3	1	baked_cod_with_carrots_and_green_beans	1	16	TF_082	0	0	0	n/a	0	0	508.167681	508.2677279	0.1000469
42441.75	0.1000032	378	foods\radish.jpg	1	3	1	radish	1	240	NF_090	1	0	0	n/a	0	0	508.3177264	508.4177296	0.1000032
42479.25	0.099936	379	non_foods\stim154_inanimate_tools_scissors_2.png	1	3	1	scissors_2	0	259	n/a	NaN	0	0	n/a	0	0	508.4677232	508.5676592	0.099936
42516.75	0.1000301	380	non_foods\stim121_inanimate_plants_bush_1.png	1	3	1	bush_1	0	40	n/a	NaN	0	0	n/a	0	0	508.6176798	508.7177099	0.1000301
42554.25	0.1000056	381	non_foods\stim066_animate_mammal_giraffe_2.png	1	3	1	giraffe_2	0	133	n/a	NaN	0	0	n/a	0	0	508.7676882	508.8676938	0.1000056
42591.75	0.1001031	382	non_foods\stim147_inanimate_tools_hammer_3.png	1	3	1	hammer_3	0	153	n/a	NaN	0	0	n/a	0	0	508.917675	509.0177781	0.1001031
42629.25	0.100014	383	non_foods\stim079_animate_mammal_rhino_3.png	1	3	1	rhino_3	0	248	n/a	NaN	1	0	n/a	0	0	509.0676751	509.1676891	0.100014
42666.75	0.0999879	384	foods\nectarine.jpg	1	3	1	nectarine	1	196	NF_078	1	0	0	n/a	0	0	509.2176966	509.3176845	0.0999879
42704.25	0.1000029	385	non_foods\stim113_inanimate_furniture_sofa_1.png	1	3	1	sofa_1	0	271	n/a	NaN	0	1	a	0.3923591	1	509.3676865	509.4676894	0.1000029
42741.75	0.0999566	386	foods\toasted_bread_with_tomatoes.jpg	1	3	1	toasted_bread_with_tomatoes	1	297	TF_017	0	0	0	n/a	0	0	509.5177244	509.617681	0.0999566
42779.25	0.0999745	387	non_foods\stim083_inanimate_clothing_gloves_3.png	1	3	1	gloves_3	0	138	n/a	NaN	0	0	n/a	0	0	509.6677144	509.7676889	0.0999745
42816.75	0.0999488	388	foods\apricot.jpg	1	3	1	apricot	1	6	NF_002	1	0	0	n/a	0	0	509.8176917	509.9176405	0.0999488
42854.25	0.0999966	389	non_foods\stim144_inanimate_tools_broom_4.png	1	3	1	broom_4	0	33	n/a	NaN	0	0	n/a	0	0	509.9676774	510.067674	0.0999966
42891.75	0.1000044	390	non_foods\stim114_inanimate_furniture_sofa_2.png	1	3	1	sofa_2	0	272	n/a	NaN	0	0	n/a	0	0	510.1176787	510.2176831	0.1000044
42929.25	0.0999756	391	foods\frankfurters.jpg	1	3	1	frankfurters	1	123	TF_156	0	0	0	n/a	0	0	510.2677087	510.3676843	0.0999756
42966.75	0.0999715	392	foods\cereal.jpg	1	3	1	cereal	1	59	TF_028	0	0	0	n/a	0	0	510.4176947	510.5176662	0.0999715
43004.25	0.1000248	393	foods\pumpkin.jpg	1	3	1	pumpkin	1	239	NF_101	1	0	0	n/a	0	0	510.5676645	510.6676893	0.1000248
43041.75	0.1000034	394	non_foods\stim022_animate_human_baby_2.png	1	3	1	baby_2	0	11	n/a	NaN	0	0	n/a	0	0	510.7176814	510.8176848	0.1000034
43079.25	0.1000028	395	non_foods\stim141_inanimate_tools_broom_1.png	1	3	1	broom_1	0	30	n/a	NaN	0	0	n/a	0	0	510.8676634	510.9676662	0.1000028
43116.75	0.0999913	396	foods\pepperoni_pizza.jpg	1	3	1	pepperoni_pizza	1	229	TF_106	0	0	0	n/a	0	0	511.0176561	511.1176474	0.0999913
43154.25	0.0999772	397	non_foods\stim038_animate_human_sports_2.png	1	3	1	sports_2	0	279	n/a	NaN	0	0	n/a	0	0	511.1676414	511.2676186	0.0999772
43191.75	0.099992	398	foods\bagel.jpg	1	3	1	bagel	1	14	TF_005	0	0	0	n/a	0	0	511.3176544	511.4176464	0.099992
43229.25	0.099967	399	foods\broccoli.jpg	1	3	1	broccoli	1	29	NF_016	1	0	0	n/a	0	0	511.4676724	511.5676394	0.099967
43266.75	0.0999982	400	non_foods\stim085_inanimate_clothing_hat_1.png	1	3	1	hat_1	0	155	n/a	NaN	0	0	n/a	0	0	511.617643	511.7176412	0.0999982
43304.25	0.0999926	401	foods\meatballs.jpg	1	3	1	meatballs	1	186	TF_112	0	0	0	n/a	0	0	511.7676446	511.8676372	0.0999926
43341.75	0.1000075	402	non_foods\stim033_animate_human_faces_1.png	1	3	1	faces_1	0	117	n/a	NaN	0	0	n/a	0	0	511.9176237	512.0176312	0.1000075
43379.25	0.099986	403	foods\cherry.jpg	1	3	1	cherry	1	64	NF_027	1	0	0	n/a	0	0	512.0676469	512.1676329	0.099986
43416.75	0.0999969	404	non_foods\stim042_animate_insect_ant_2.png	1	3	1	ant_2	0	2	n/a	NaN	1	0	n/a	0	0	512.2176346	512.3176315	0.0999969
43454.25	0.1000004	405	non_foods\stim149_inanimate_tools_pan_1.png	1	3	1	pan_1	0	205	n/a	NaN	0	0	n/a	0	0	512.3676337	512.4676341	0.1000004
43491.75	0.100007	406	non_foods\stim122_inanimate_plants_bush_2.png	1	3	1	bush_2	0	41	n/a	NaN	0	0	n/a	0	0	512.5176377	512.6176447	0.100007
43529.25	0.0999877	407	foods\fennel.jpg	1	3	1	fennel	1	121	NF_036	1	0	1	a	0.442312	1	512.6676378	512.7676255	0.0999877
43566.75	0.0999867	408	foods\honey.jpg	1	3	1	honey	1	160	NF_062	1	0	0	n/a	0	0	512.8176411	512.9176278	0.0999867
43604.25	0.0999929	409	non_foods\stim133_inanimate_plants_tree_1.png	1	3	1	tree_1	0	299	n/a	NaN	0	0	n/a	0	0	512.9676309	513.0676238	0.0999929
43641.75	0.0999971	410	foods\green_beans.jpg	1	3	1	green_beans	1	147	NF_034	1	0	0	n/a	0	0	513.1176326	513.2176297	0.0999971
43679.25	0.0999655	411	foods\papaya.jpg	1	3	1	papaya	1	210	NF_069	1	0	0	n/a	0	0	513.2676558	513.3676213	0.0999655
43716.75	0.0999948	412	non_foods\stim151_inanimate_tools_pan_3.png	1	3	1	pan_3	0	207	n/a	NaN	0	0	n/a	0	0	513.4176278	513.5176226	0.0999948
43754.25	0.0999887	413	foods\hotdog.jpg	1	3	1	hotdog	1	161	TF_070	0	0	0	n/a	0	0	513.5676318	513.6676205	0.0999887
43791.75	0.0999694	414	non_foods\stim155_inanimate_tools_scissors_3.png	1	3	1	scissors_3	0	260	n/a	NaN	0	0	n/a	0	0	513.7176211	513.8175905	0.0999694
43829.25	0.0999905	415	foods\beetroots.jpg	1	3	1	beetroots	1	23	NF_015	1	0	0	n/a	0	0	513.8676275	513.967618	0.0999905
43866.75	0.0999959	416	non_foods\stim059_animate_insect_grasshopper_3.png	1	3	1	grasshopper_3	0	145	n/a	NaN	0	0	n/a	0	0	514.0176221	514.117618	0.0999959
43904.25	0.0999935	417	non_foods\stim047_animate_insect_bug_3.png	1	3	1	bug_3	0	38	n/a	NaN	0	0	n/a	0	0	514.1676191	514.2676126	0.0999935
43941.75	0.1000083	418	foods\lamb_chops.jpg	1	3	1	lamb_chops	1	173	TF_040	0	0	0	n/a	0	0	514.3176282	514.4176365	0.1000083
43979.25	0.0999877	419	foods\brie.jpg	1	3	1	brie	1	28	TF_016	0	0	0	n/a	0	0	514.4676247	514.5676124	0.0999877
44016.75	0.0999951	420	non_foods\stim030_animate_human_clown_2.png	1	3	1	clown_2	0	86	n/a	NaN	0	0	n/a	0	0	514.617615	514.7176101	0.0999951
44054.25	0.0999857	421	foods\lettuce.jpg	1	3	1	lettuce	1	178	NF_046	1	0	0	n/a	0	0	514.767622	514.8676077	0.0999857
44091.75	0.1000054	422	foods\orange.jpg	1	3	1	orange	1	201	NF_008	1	0	0	n/a	0	0	514.9176182	515.0176236	0.1000054
44129.25	0.0999663	423	foods\oregano.jpg	1	3	1	oregano	1	202	NF_066	1	0	0	n/a	0	0	515.0676416	515.1676079	0.0999663
44166.75	0.0999957	424	non_foods\stim148_inanimate_tools_hammer_4.png	1	3	1	hammer_4	0	154	n/a	NaN	0	0	n/a	0	0	515.2176078	515.3176035	0.0999957
44204.25	0.0999957	425	non_foods\stim049_animate_insect_butterfly_1.png	1	3	1	butterfly_1	0	44	n/a	NaN	0	0	n/a	0	0	515.3676099	515.4676056	0.0999957
44241.75	0.0999882	426	foods\corncob.jpg	1	3	1	corncob	1	93	NF_051	1	0	0	n/a	0	0	515.517616	515.6176042	0.0999882
44279.25	0.0999971	427	non_foods\stim045_animate_insect_bug_1.png	1	3	1	bug_1	0	36	n/a	NaN	0	0	n/a	0	0	515.6676044	515.7676015	0.0999971
44316.75	0.0999907	428	non_foods\stim108_inanimate_furniture_chair_4.png	1	3	1	chair_4	0	63	n/a	NaN	0	0	n/a	0	0	515.8176082	515.9175989	0.0999907
44354.25	0.0999936	429	non_foods\stim057_animate_insect_grasshopper_1.png	1	3	1	grasshopper_1	0	143	n/a	NaN	0	0	n/a	0	0	515.9676012	516.0675948	0.0999936
44391.75	0.0999831	430	foods\cracker.jpg	1	3	1	cracker	1	98	TF_043	0	0	0	n/a	0	0	516.1176252	516.2176083	0.0999831
44429.25	0.0999949	431	non_foods\stim052_animate_insect_butterfly_4.png	1	3	1	butterfly_4	0	47	n/a	NaN	0	0	n/a	0	0	516.2676032	516.3675981	0.0999949
44466.75	0.0999942	432	non_foods\stim111_inanimate_furniture_closet_3.png	1	3	1	closet_3	0	83	n/a	NaN	0	0	n/a	0	0	516.4175988	516.517593	0.0999942
44504.25	0.0999918	433	non_foods\stim098_inanimate_clothing_socks_2.png	1	3	1	socks_2	0	268	n/a	NaN	0	0	n/a	0	0	516.5675986	516.6675904	0.0999918
44541.75	0.0999997	434	foods\spaghetti_with_meat_sauce.jpg	1	3	1	spaghetti_with_meat_sauce	1	275	TF_137	0	0	0	n/a	0	0	516.7176117	516.8176114	0.0999997
44579.25	0.0999751	435	foods\rockmelon.jpg	1	3	1	rockmelon	1	254	NF_060	1	0	0	n/a	0	0	516.8676159	516.967591	0.0999751
44616.75	0.0999929	436	non_foods\stim068_animate_mammal_giraffe_4.png	1	3	1	giraffe_4	0	135	n/a	NaN	0	0	n/a	0	0	517.0175951	517.117588	0.0999929
44654.25	0.0999904	437	foods\potato_and_green_bean_salad.jpg	1	3	1	potato_and_green_bean_salad	1	235	TF_072	0	0	0	n/a	0	0	517.1675961	517.2675865	0.0999904
44691.75	0.0999892	438	foods\cuttlefish.jpg	1	3	1	cuttlefish	1	103	NF_093	1	0	0	n/a	0	0	517.3175959	517.4175851	0.0999892
44729.25	0.0999941	439	non_foods\stim013_animate_bird_peacock_1.png	1	3	1	peacock_1	0	219	n/a	NaN	0	0	n/a	0	0	517.4675903	517.5675844	0.0999941
44766.75	0.0999901	440	foods\pork_loin_with_peas.jpg	1	3	1	pork_loin_with_peas	1	234	TF_003	0	0	0	n/a	0	0	517.6175928	517.7175829	0.0999901
44804.25	0.0999945	441	non_foods\stim014_animate_bird_peacock_2.png	1	3	1	peacock_2	0	220	n/a	NaN	0	0	n/a	0	0	517.7675878	517.8675823	0.0999945
44841.75	0.099986	442	foods\cabbage.jpg	1	3	1	cabbage	1	48	NF_025	1	0	0	n/a	0	0	517.9176132	518.0175992	0.099986
44879.25	0.1000044	443	foods\baguette.jpg	1	3	1	baguette	1	15	TF_006	0	0	0	n/a	0	0	518.0675914	518.1675958	0.1000044
44916.75	0.0999901	444	foods\mortadella.jpg	1	3	1	mortadella	1	192	TF_083	0	0	0	n/a	0	0	518.2175865	518.3175766	0.0999901
44954.25	0.0999942	445	non_foods\stim106_inanimate_furniture_chair_2.png	1	3	1	chair_2	0	61	n/a	NaN	0	0	n/a	0	0	518.3675831	518.4675773	0.0999942
44991.75	0.1000056	446	foods\wafer.jpg	1	3	1	wafer	1	307	TF_155	0	0	0	n/a	0	0	518.5175966	518.6176022	0.1000056
45029.25	0.0999926	447	non_foods\stim082_inanimate_clothing_gloves_2.png	1	3	1	gloves_2	0	137	n/a	NaN	0	0	n/a	0	0	518.6675783	518.7675709	0.0999926
45066.75	0.0999791	448	foods\lentils.jpg	1	3	1	lentils	1	177	NF_047	1	0	0	n/a	0	0	518.8175818	518.9175609	0.0999791
45104.25	0.0999934	449	non_foods\stim117_inanimate_furniture_table_1.png	1	3	1	table_1	0	291	n/a	NaN	0	0	n/a	0	0	518.9675779	519.0675713	0.0999934
45141.75	0.0999974	450	non_foods\stim143_inanimate_tools_broom_3.png	1	3	1	broom_3	0	32	n/a	NaN	0	0	n/a	0	0	519.1175715	519.2175689	0.0999974
45179.25	0.0999903	451	foods\capsicum.jpg	1	3	1	capsicum	1	55	NF_076	1	0	0	n/a	0	0	519.2675783	519.3675686	0.0999903
45216.75	0.0999848	452	foods\brussel_sprouts.jpg	1	3	1	brussel_sprouts	1	35	NF_021	1	0	0	n/a	0	0	519.4175789	519.5175637	0.0999848
45254.25	0.0999934	453	non_foods\stim011_animate_bird_parrot_3.png	1	3	1	parrot_3	0	214	n/a	NaN	0	0	n/a	0	0	519.5675733	519.6675667	0.0999934
45291.75	0.0999887	454	foods\banana.jpg	1	3	1	banana	1	18	NF_013	1	0	0	n/a	0	0	519.7175728	519.8175615	0.0999887
45329.25	0.0999888	455	foods\cinnamon_sroll.jpg	1	3	1	cinnamon_sroll	1	80	TF_021	0	0	0	n/a	0	0	519.8675726	519.9675614	0.0999888
45366.75	0.0999882	456	foods\gnocchi.jpg	1	3	1	gnocchi	1	140	TF_064	0	0	0	n/a	0	0	520.0175748	520.117563	0.0999882
45404.25	0.0999981	457	non_foods\stim016_animate_bird_peacock_4.png	1	3	1	peacock_4	0	222	n/a	NaN	0	0	n/a	0	0	520.1675643	520.2675624	0.0999981
45441.75	0.0999854	458	non_foods\stim026_animate_human_child_2.png	1	3	1	child_2	0	71	n/a	NaN	0	0	n/a	0	0	520.3175875	520.4175729	0.0999854
45479.25	0.0999864	459	foods\mandarin.jpg	1	3	1	mandarin	1	184	NF_052	1	1	0	n/a	0	0	520.467568	520.5675544	0.0999864
45516.75	0.0999921	460	non_foods\stim029_animate_human_clown_1.png	1	3	1	clown_1	0	85	n/a	NaN	0	0	n/a	0	0	520.617561	520.7175531	0.0999921
45554.25	0.099987	461	foods\chocolate_bar.jpg	1	3	1	chocolate_bar	1	75	TF_033	0	0	0	n/a	0	0	520.7675677	520.8675547	0.099987
45591.75	0.0999986	462	non_foods\stim032_animate_human_clown_4.png	1	3	1	clown_4	0	88	n/a	NaN	0	1	a	0.5421102	1	520.9175552	521.0175538	0.0999986
45629.25	0.0999883	463	foods\nougat.jpg	1	3	1	nougat	1	197	TF_144	0	0	0	n/a	0	0	521.0675621	521.1675504	0.0999883
45666.75	0.0999893	464	foods\risotto_with_peas_and_asparagus_tips.jpg	1	3	1	risotto_with_peas_and_asparagus_tips	1	252	TF_123	0	0	0	n/a	0	0	521.2175621	521.3175514	0.0999893
45704.25	0.1000145	465	non_foods\stim070_animate_mammal_kangaroo_2.png	1	3	1	kangaroo_2	0	169	n/a	NaN	0	0	n/a	0	0	521.3675519	521.4675664	0.1000145
45741.75	0.0999946	466	foods\lollies.jpg	1	3	1	lollies	1	183	TF_026	0	0	0	n/a	0	0	521.5175572	521.6175518	0.0999946
45779.25	0.0999908	467	non_foods\stim064_animate_mammal_cow_4.png	1	3	1	cow_4	0	97	n/a	NaN	0	0	n/a	0	0	521.667552	521.7675428	0.0999908
45816.75	0.1000022	468	non_foods\stim015_animate_bird_peacock_3.png	1	3	1	peacock_3	0	221	n/a	NaN	0	0	n/a	0	0	521.8175515	521.9175537	0.1000022
45854.25	0.1000061	469	foods\calamari.jpg	1	3	1	calamari	1	53	TF_019	0	0	0	n/a	0	0	521.9675435	522.0675496	0.1000061
45891.75	0.0999754	470	foods\fried_calamari.jpg	1	3	1	fried_calamari	1	124	TF_020	0	0	0	n/a	0	0	522.1175808	522.2175562	0.0999754
46304.25	0.099971	471	non_foods\stim004_animate_bird_chicken_4.png	1	4	1	chicken_4	0	69	n/a	NaN	0	0	n/a	0	0	523.7675588	523.8675298	0.099971
46341.75	0.1000391	472	non_foods\stim010_animate_bird_parrot_2.png	1	4	1	parrot_2	0	213	n/a	NaN	0	0	n/a	0	0	523.917492	524.0175311	0.1000391
46379.25	0.0999945	473	foods\avocado.jpg	1	4	1	avocado	1	9	NF_012	1	0	0	n/a	0	0	524.0675289	524.1675234	0.0999945
46416.75	0.1000244	474	non_foods\stim146_inanimate_tools_hammer_2.png	1	4	1	hammer_2	0	152	n/a	NaN	0	0	n/a	0	0	524.2174975	524.3175219	0.1000244
46454.25	0.0999985	475	non_foods\stim039_animate_human_sports_3.png	1	4	1	sports_3	0	280	n/a	NaN	0	0	n/a	0	0	524.3675235	524.467522	0.0999985
46491.75	0.0999893	476	foods\pasta_carbonara.jpg	1	4	1	pasta_carbonara	1	216	TF_027	0	0	0	n/a	0	0	524.5175296	524.6175189	0.0999893
46529.25	0.0999918	477	non_foods\stim134_inanimate_plants_tree_2.png	1	4	1	tree_2	0	300	n/a	NaN	0	0	n/a	0	0	524.6675246	524.7675164	0.0999918
46566.75	0.0999753	478	foods\strawberry.jpg	1	4	1	strawberry	1	285	NF_037	1	0	0	n/a	0	0	524.8175431	524.9175184	0.0999753
46604.25	0.0999911	479	foods\red_beans.jpg	1	4	1	red_beans	1	244	NF_033	1	0	0	n/a	0	0	524.9675227	525.0675138	0.0999911
46641.75	0.099991	480	foods\egg.jpg	1	4	1	egg	1	115	NF_095	1	0	0	n/a	0	0	525.1175236	525.2175146	0.099991
46679.25	0.0999889	481	non_foods\stim018_animate_bird_penguin_2.png	1	4	1	penguin_2	0	226	n/a	NaN	0	0	n/a	0	0	525.2675196	525.3675085	0.0999889
46716.75	0.0999989	482	non_foods\stim037_animate_human_sports_1.png	1	4	1	sports_1	0	278	n/a	NaN	0	0	n/a	0	0	525.4175151	525.517514	0.0999989
46754.25	0.0999929	483	foods\chestnut.jpg	1	4	1	chestnut	1	65	NF_020	1	0	0	n/a	0	0	525.5675196	525.6675125	0.0999929
46791.75	0.0999917	484	non_foods\stim126_inanimate_plants_cactus_2.png	1	4	1	cactus_2	0	50	n/a	NaN	0	0	n/a	0	0	525.7175159	525.8175076	0.0999917
46829.25	0.0999682	485	foods\stew_with_potatoes_and_carrots.jpg	1	4	1	stew_with_potatoes_and_carrots	1	284	TF_139	0	0	0	n/a	0	0	525.8675184	525.9674866	0.0999682
46866.75	0.0999862	486	foods\blackberry.jpg	1	4	1	blackberry	1	24	NF_063	1	0	0	n/a	0	0	526.0175198	526.117506	0.0999862
46904.25	0.0999618	487	foods\savory_pie.jpg	1	4	1	savory_pie	1	257	TF_146	0	0	0	n/a	0	0	526.1675416	526.2675034	0.0999618
46941.75	0.0999968	488	non_foods\stim009_animate_bird_parrot_1.png	1	4	1	parrot_1	0	212	n/a	NaN	0	0	n/a	0	0	526.317509	526.4175058	0.0999968
46979.25	0.0999837	489	foods\cannoli.jpg	1	4	1	cannoli	1	54	TF_022	0	0	0	n/a	0	0	526.4675151	526.5674988	0.0999837
47016.75	0.0999918	490	foods\fried_zucchini.jpg	1	4	1	fried_zucchini	1	125	TF_159	0	0	0	n/a	0	0	526.6175112	526.717503	0.0999918
47054.25	0.1000022	491	non_foods\stim090_inanimate_clothing_jeans_2.png	1	4	1	jeans_2	0	165	n/a	NaN	0	0	n/a	0	0	526.7674969	526.8674991	0.1000022
47091.75	0.0999957	492	non_foods\stim089_inanimate_clothing_jeans_1.png	1	4	1	jeans_1	0	164	n/a	NaN	0	0	n/a	0	0	526.9175006	527.0174963	0.0999957
47129.25	0.0999882	493	foods\cinnamon.jpg	1	4	1	cinnamon	1	79	NF_017	1	0	0	n/a	0	0	527.0675097	527.1674979	0.0999882
47166.75	0.1000168	494	non_foods\stim159_inanimate_tools_wrench_3.png	1	4	1	wrench_3	0	312	n/a	NaN	0	0	n/a	0	0	527.2175013	527.3175181	0.1000168
47204.25	0.0999891	495	foods\chilli.jpg	1	4	1	chilli	1	74	NF_073	1	0	0	n/a	0	0	527.3675024	527.4674915	0.0999891
47241.75	0.09999	496	foods\lime.jpg	1	4	1	lime	1	180	NF_048	1	0	0	n/a	0	0	527.517504	527.617494	0.09999
47279.25	0.0999846	497	non_foods\stim139_inanimate_plants_tulip_3.png	1	4	1	tulip_3	0	305	n/a	NaN	0	0	n/a	0	0	527.6674957	527.7674803	0.0999846
47316.75	0.0999886	498	foods\raw_ham.jpg	1	4	1	raw_ham	1	242	TF_117	0	0	0	n/a	0	0	527.8174996	527.9174882	0.0999886
47354.25	0.1000134	499	non_foods\stim006_animate_bird_duck_2.png	1	4	1	duck_2	0	112	n/a	NaN	0	0	n/a	0	0	527.9674938	528.0675072	0.1000134
47391.75	0.099986	500	foods\lemon_meringue_pie.jpg	1	4	1	lemon_meringue_pie	1	176	TF_151	0	0	0	n/a	0	0	528.1174988	528.2174848	0.099986
47429.25	0.1000209	501	non_foods\stim058_animate_insect_grasshopper_2.png	1	4	1	grasshopper_2	0	144	n/a	NaN	0	0	n/a	0	0	528.267487	528.3675079	0.1000209
47466.75	0.0999925	502	non_foods\stim012_animate_bird_parrot_4.png	1	4	1	parrot_4	0	215	n/a	NaN	0	0	n/a	0	0	528.4174882	528.5174807	0.0999925
47504.25	0.0999804	503	foods\chocolate_pudding.jpg	1	4	1	chocolate_pudding	1	78	TF_018	0	0	0	n/a	0	0	528.5675017	528.6674821	0.0999804
47541.75	0.099993	504	non_foods\stim023_animate_human_baby_3.png	1	4	1	baby_3	0	12	n/a	NaN	0	0	n/a	0	0	528.7174862	528.8174792	0.099993
47579.25	0.0999932	505	non_foods\stim132_inanimate_plants_sunflower_4.png	1	4	1	sunflower_4	0	289	n/a	NaN	0	0	n/a	0	0	528.8674889	528.9674821	0.0999932
47616.75	0.0999847	506	foods\licorice.jpg	1	4	1	licorice	1	179	TF_078	0	0	0	n/a	0	0	529.0175014	529.1174861	0.0999847
47654.25	0.0999903	507	non_foods\stim152_inanimate_tools_pan_4.png	1	4	1	pan_4	0	208	n/a	NaN	0	0	n/a	0	0	529.167485	529.2674753	0.0999903
47691.75	0.0999961	508	non_foods\stim072_animate_mammal_kangaroo_4.png	1	4	1	kangaroo_4	0	171	n/a	NaN	0	0	n/a	0	0	529.3174797	529.4174758	0.0999961
47729.25	0.0999954	509	non_foods\stim067_animate_mammal_giraffe_3.png	1	4	1	giraffe_3	0	134	n/a	NaN	0	0	n/a	0	0	529.4674793	529.5674747	0.0999954
47766.75	0.0999955	510	non_foods\stim071_animate_mammal_kangaroo_3.png	1	4	1	kangaroo_3	0	170	n/a	NaN	0	0	n/a	0	0	529.6174757	529.7174712	0.0999955
47804.25	0.099992	511	foods\pineapple.jpg	1	4	1	pineapple	1	231	NF_004	1	0	0	n/a	0	0	529.7674831	529.8674751	0.099992
47841.75	0.0999921	512	non_foods\stim102_inanimate_furniture_bed_2.png	1	4	1	bed_2	0	20	n/a	NaN	0	0	n/a	0	0	529.9174786	530.0174707	0.0999921
47879.25	0.1000026	513	foods\toast.jpg	1	4	1	toast	1	296	TF_053	0	0	0	n/a	0	0	530.0674765	530.1674791	0.1000026
47916.75	0.0999905	514	non_foods\stim036_animate_human_faces_4.png	1	4	1	faces_4	0	120	n/a	NaN	0	0	n/a	0	0	530.2174729	530.3174634	0.0999905
47954.25	0.1000089	515	non_foods\stim160_inanimate_tools_wrench_4.png	1	4	1	wrench_4	0	313	n/a	NaN	0	0	n/a	0	0	530.3674669	530.4674758	0.1000089
47991.75	0.0999958	516	non_foods\stim091_inanimate_clothing_jeans_3.png	1	4	1	jeans_3	0	166	n/a	NaN	0	0	n/a	0	0	530.5174722	530.617468	0.0999958
48029.25	0.0999983	517	non_foods\stim069_animate_mammal_kangaroo_1.png	1	4	1	kangaroo_1	0	168	n/a	NaN	0	0	n/a	0	0	530.6674675	530.7674658	0.0999983
48066.75	0.0999713	518	non_foods\stim145_inanimate_tools_hammer_1.png	1	4	1	hammer_1	0	151	n/a	NaN	0	0	n/a	0	0	530.8174884	530.9174597	0.0999713
48104.25	0.0999957	519	foods\lobster.jpg	1	4	1	lobster	1	182	NF_007	1	0	0	n/a	0	0	530.9674727	531.0674684	0.0999957
48141.75	0.0999878	520	foods\fruit_salad.jpg	1	4	1	fruit_salad	1	129	NF_043	1	1	0	n/a	0	0	531.1174722	531.21746	0.0999878
48179.25	0.0999905	521	foods\potato_chips.jpg	1	4	1	potato_chips	1	236	TF_097	0	0	0	n/a	0	0	531.2674702	531.3674607	0.0999905
48216.75	0.0999913	522	non_foods\stim100_inanimate_clothing_socks_4.png	1	4	1	socks_4	0	270	n/a	NaN	0	1	a	0.392117	1	531.4174634	531.5174547	0.0999913
48254.25	0.0999878	523	foods\mushroom.jpg	1	4	1	mushroom	1	194	NF_039	1	0	0	n/a	0	0	531.5674647	531.6674525	0.0999878
48291.75	0.0999926	524	foods\raw_sausage.jpg	1	4	1	raw_sausage	1	243	TF_131	0	0	0	n/a	0	0	531.7174625	531.8174551	0.0999926
48329.25	0.1000324	525	non_foods\stim116_inanimate_furniture_sofa_4.png	1	4	1	sofa_4	0	274	n/a	NaN	0	0	n/a	0	0	531.8674568	531.9674892	0.1000324
48366.75	0.0999811	526	foods\raisins.jpg	1	4	1	raisins	1	241	NF_096	1	0	0	n/a	0	0	532.0174715	532.1174526	0.0999811
48404.25	0.0999928	527	non_foods\stim097_inanimate_clothing_socks_1.png	1	4	1	socks_1	0	267	n/a	NaN	0	0	n/a	0	0	532.1674562	532.267449	0.0999928
48441.75	0.0999871	528	foods\lasagna.jpg	1	4	1	lasagna	1	174	TF_076	0	0	0	n/a	0	0	532.3174585	532.4174456	0.0999871
48479.25	0.0999861	529	non_foods\stim025_animate_human_child_1.png	1	4	1	child_1	0	70	n/a	NaN	0	0	n/a	0	0	532.4674495	532.5674356	0.0999861
48516.75	0.09997	530	foods\prawn.jpg	1	4	1	prawn	1	238	NF_041	1	0	0	n/a	0	0	532.6174765	532.7174465	0.09997
48554.25	0.0999923	531	foods\hazelnuts.jpg	1	4	1	hazelnuts	1	159	NF_065	1	0	0	n/a	0	0	532.7674544	532.8674467	0.0999923
48591.75	0.0999968	532	non_foods\stim140_inanimate_plants_tulip_4.png	1	4	1	tulip_4	0	306	n/a	NaN	0	0	n/a	0	0	532.9174456	533.0174424	0.0999968
48629.25	0.099993	533	non_foods\stim081_inanimate_clothing_gloves_1.png	1	4	1	gloves_1	0	136	n/a	NaN	0	0	n/a	0	0	533.0674467	533.1674397	0.099993
48666.75	0.0999922	534	foods\coffee_beans.jpg	1	4	1	coffee_beans	1	90	TF_029	0	0	0	n/a	0	0	533.2174507	533.3174429	0.0999922
48704.25	0.1000015	535	non_foods\stim086_inanimate_clothing_hat_2.png	1	4	1	hat_2	0	156	n/a	NaN	0	0	n/a	0	0	533.3674375	533.467439	0.1000015
48741.75	0.099991	536	non_foods\stim002_animate_bird_chicken_2.png	1	4	1	chicken_2	0	67	n/a	NaN	0	0	n/a	0	0	533.5174435	533.6174345	0.099991
48779.25	0.0999892	537	non_foods\stim110_inanimate_furniture_closet_2.png	1	4	1	closet_2	0	82	n/a	NaN	0	0	n/a	0	0	533.667444	533.7674332	0.0999892
48816.75	0.1	538	foods\salmon.jpg	1	4	1	salmon	1	256	TF_130	0	0	0	n/a	0	0	533.8174357	533.9174357	0.1
48854.25	0.0999933	539	non_foods\stim096_inanimate_clothing_shirt_4.png	1	4	1	shirt_4	0	265	n/a	NaN	0	0	n/a	0	0	533.9674417	534.067435	0.0999933
48891.75	0.0999883	540	foods\watermelon.jpg	1	4	1	watermelon	1	309	NF_005	1	0	0	n/a	0	0	534.1174408	534.2174291	0.0999883
48929.25	0.1000208	541	non_foods\stim008_animate_bird_duck_4.png	1	4	1	duck_4	0	114	n/a	NaN	0	0	n/a	0	0	534.2674359	534.3674567	0.1000208
48966.75	0.0999393	542	foods\steak.jpg	1	4	1	steak	1	283	TF_013	0	0	0	n/a	0	0	534.417488	534.5174273	0.0999393
49004.25	0.0999898	543	foods\oyster.jpg	1	4	1	oyster	1	204	NF_067	1	0	0	n/a	0	0	534.567436	534.6674258	0.0999898
49041.75	0.0999933	544	foods\donut.jpg	1	4	1	donut	1	105	TF_032	0	0	0	n/a	0	0	534.7174383	534.8174316	0.0999933
49079.25	0.0999882	545	foods\grapefruits.jpg	1	4	1	grapefruits	1	141	NF_085	1	0	0	n/a	0	0	534.867437	534.9674252	0.0999882
49116.75	0.0999874	546	foods\chocolate_pralines.jpg	1	4	1	chocolate_pralines	1	77	TF_035	0	0	0	n/a	0	0	535.0174338	535.1174212	0.0999874
49154.25	0.0999918	547	foods\coconut.jpg	1	4	1	coconut	1	89	NF_030	1	0	0	n/a	0	0	535.167433	535.2674248	0.0999918
49191.75	0.0999963	548	non_foods\stim157_inanimate_tools_wrench_1.png	1	4	1	wrench_1	0	310	n/a	NaN	0	0	n/a	0	0	535.3174234	535.4174197	0.0999963
49229.25	0.0999989	549	non_foods\stim124_inanimate_plants_bush_4.png	1	4	1	bush_4	0	43	n/a	NaN	0	0	n/a	0	0	535.4674233	535.5674222	0.0999989
49266.75	0.099996	550	non_foods\stim027_animate_human_child_3.png	1	4	1	child_3	0	72	n/a	NaN	0	0	n/a	0	0	535.6174234	535.7174194	0.099996
49304.25	0.0999924	551	foods\grilled_chicken_breast.jpg	1	4	1	grilled_chicken_breast	1	149	TF_104	0	0	0	n/a	0	0	535.7674258	535.8674182	0.0999924
49341.75	0.099991	552	foods\hamburger.jpg	1	4	1	hamburger	1	150	TF_069	0	0	0	n/a	0	0	535.9174255	536.0174165	0.099991
49379.25	0.1000059	553	foods\rice.jpg	1	4	1	rice	1	250	TF_121	0	0	0	n/a	0	0	536.0674286	536.1674345	0.1000059
49416.75	0.0999737	554	foods\fries.jpg	1	4	1	fries	1	126	TF_094	0	0	0	n/a	0	0	536.217439	536.3174127	0.0999737
49454.25	0.0999866	555	foods\cauliflower.jpg	1	4	1	cauliflower	1	57	NF_022	1	0	0	n/a	0	0	536.3674237	536.4674103	0.0999866
49491.75	0.099996	556	non_foods\stim062_animate_mammal_cow_2.png	1	4	1	cow_2	0	95	n/a	NaN	0	0	n/a	0	0	536.5174145	536.6174105	0.099996
49529.25	0.0999931	557	non_foods\stim078_animate_mammal_rhino_2.png	1	4	1	rhino_2	0	247	n/a	NaN	0	0	n/a	0	0	536.6674142	536.7674073	0.0999931
49566.75	0.0999974	558	non_foods\stim041_animate_insect_ant_1.png	1	4	1	ant_1	0	1	n/a	NaN	0	0	n/a	0	0	536.8174101	536.9174075	0.0999974
49604.25	0.0999947	559	non_foods\stim115_inanimate_furniture_sofa_3.png	1	4	1	sofa_3	0	273	n/a	NaN	0	0	n/a	0	0	536.9674145	537.0674092	0.0999947
49641.75	0.0999773	560	foods\peas.jpg	1	4	1	peas	1	224	NF_081	1	0	0	n/a	0	0	537.1174177	537.217395	0.0999773
49679.25	0.0999911	561	non_foods\stim007_animate_bird_duck_3.png	1	4	1	duck_3	0	113	n/a	NaN	0	0	n/a	0	0	537.2674193	537.3674104	0.0999911
49716.75	0.09999	562	foods\smoked_ham.jpg	1	4	1	smoked_ham	1	266	TF_118	0	0	0	n/a	0	0	537.4174139	537.5174039	0.09999
49754.25	0.0999914	563	foods\bread.jpg	1	4	1	bread	1	26	TF_089	0	0	0	n/a	0	0	537.5674094	537.6674008	0.0999914
49791.75	0.0999895	564	foods\green_olives.jpg	1	4	1	green_olives	1	148	TF_085	0	0	0	n/a	0	0	537.7174114	537.8174009	0.0999895
49829.25	0.1000189	565	non_foods\stim028_animate_human_child_4.png	1	4	1	child_4	0	73	n/a	NaN	0	0	n/a	0	0	537.8674065	537.9674254	0.1000189
49866.75	0.0999953	566	non_foods\stim094_inanimate_clothing_shirt_2.png	1	4	1	shirt_2	0	263	n/a	NaN	0	0	n/a	0	0	538.0174019	538.1173972	0.0999953
49904.25	0.100003	567	non_foods\stim073_animate_mammal_monkey_1.png	1	4	1	monkey_1	0	188	n/a	NaN	0	0	n/a	0	0	538.1673972	538.2674002	0.100003
49941.75	0.0999932	568	non_foods\stim084_inanimate_clothing_gloves_4.png	1	4	1	gloves_4	0	139	n/a	NaN	0	0	n/a	0	0	538.317402	538.4173952	0.0999932
49979.25	0.1000276	569	non_foods\stim138_inanimate_plants_tulip_2.png	1	4	1	tulip_2	0	304	n/a	NaN	0	0	n/a	0	0	538.4673666	538.5673942	0.1000276
50016.75	0.0999908	570	foods\asparagus.jpg	1	4	1	asparagus	1	8	NF_010	1	0	0	n/a	0	0	538.6174027	538.7173935	0.0999908
50054.25	0.0999958	571	non_foods\stim136_inanimate_plants_tree_4.png	1	4	1	tree_4	0	302	n/a	NaN	0	0	n/a	0	0	538.7673943	538.8673901	0.0999958
50091.75	0.0999952	572	non_foods\stim095_inanimate_clothing_shirt_3.png	1	4	1	shirt_3	0	264	n/a	NaN	0	0	n/a	0	0	538.9173956	539.0173908	0.0999952
50129.25	0.0999917	573	non_foods\stim019_animate_bird_penguin_3.png	1	4	1	penguin_3	0	227	n/a	NaN	0	0	n/a	0	0	539.0673924	539.1673841	0.0999917
50166.75	0.0999954	574	non_foods\stim127_inanimate_plants_cactus_3.png	1	4	1	cactus_3	0	51	n/a	NaN	0	0	n/a	0	0	539.2173919	539.3173873	0.0999954
50204.25	0.0999962	575	non_foods\stim099_inanimate_clothing_socks_3.png	1	4	1	socks_3	0	269	n/a	NaN	0	0	n/a	0	0	539.3673904	539.4673866	0.0999962
50241.75	0.0999838	576	foods\taco.jpg	1	4	1	taco	1	295	TF_141	0	0	0	n/a	0	0	539.5173974	539.6173812	0.0999838
50279.25	0.1000097	577	non_foods\stim060_animate_insect_grasshopper_4.png	1	4	1	grasshopper_4	0	146	n/a	NaN	0	0	n/a	0	0	539.6673833	539.767393	0.1000097
50316.75	0.0999891	578	foods\rice_cake.jpg	1	4	1	rice_cake	1	251	TF_059	0	0	0	n/a	0	0	539.8173908	539.9173799	0.0999891
50354.25	0.099988	579	foods\linguine_with_clams.jpg	1	4	1	linguine_with_clams	1	181	TF_077	0	0	0	n/a	0	0	539.9673891	540.0673771	0.099988
50391.75	0.0999847	580	foods\oven-roasted_tomatoes.jpg	1	4	1	oven-roasted_tomatoes	1	203	TF_114	0	0	0	n/a	0	0	540.1173929	540.2173776	0.0999847
50429.25	0.0999948	581	non_foods\stim044_animate_insect_ant_4.png	1	4	1	ant_4	0	4	n/a	NaN	0	0	n/a	0	0	540.2673785	540.3673733	0.0999948
50466.75	0.0999977	582	non_foods\stim156_inanimate_tools_scissors_4.png	1	4	1	scissors_4	0	261	n/a	NaN	0	0	n/a	0	0	540.4173779	540.5173756	0.0999977
50504.25	0.0999844	583	foods\figs.jpg	1	4	1	figs	1	122	NF_035	1	0	0	n/a	0	0	540.567385	540.6673694	0.0999844
50541.75	0.1000097	584	non_foods\stim129_inanimate_plants_sunflower_1.png	1	4	1	sunflower_1	0	286	n/a	NaN	0	0	n/a	0	0	540.7173792	540.8173889	0.1000097
50579.25	0.0999897	585	foods\fruit_flan.jpg	1	4	1	fruit_flan	1	127	TF_093	0	0	0	n/a	0	0	540.8673799	540.9673696	0.0999897
50616.75	0.0999948	586	non_foods\stim048_animate_insect_bug_4.png	1	4	1	bug_4	0	39	n/a	NaN	0	0	n/a	0	0	541.0173747	541.1173695	0.0999948
50654.25	0.0999953	587	non_foods\stim101_inanimate_furniture_bed_1.png	1	4	1	bed_1	0	19	n/a	NaN	0	0	n/a	0	0	541.1673715	541.2673668	0.0999953
50691.75	0.0999987	588	non_foods\stim107_inanimate_furniture_chair_3.png	1	4	1	chair_3	0	62	n/a	NaN	0	0	n/a	0	0	541.317373	541.4173717	0.0999987
50729.25	0.099965	589	foods\tomato.jpg	1	4	1	tomato	1	298	NF_084	1	1	0	n/a	0	0	541.4674012	541.5673662	0.099965
50766.75	0.0999977	590	non_foods\stim076_animate_mammal_monkey_4.png	1	4	1	monkey_4	0	191	n/a	NaN	0	0	n/a	0	0	541.6173678	541.7173655	0.0999977
50804.25	0.0999896	591	foods\ginger_root.jpg	1	4	1	ginger_root	1	131	NF_088	1	0	0	n/a	0	0	541.7673732	541.8673628	0.0999896
50841.75	0.0999955	592	non_foods\stim046_animate_insect_bug_2.png	1	4	1	bug_2	0	37	n/a	NaN	0	1	a	0.4507779	1	541.9173627	542.0173582	0.0999955
50879.25	0.0999922	593	foods\croissant.jpg	1	4	1	croissant	1	100	TF_037	0	0	0	n/a	0	0	542.0673701	542.1673623	0.0999922
50916.75	0.0999903	594	foods\pea_pod.jpg	1	4	1	pea_pod	1	217	NF_082	1	0	0	n/a	0	0	542.2173702	542.3173605	0.0999903
50954.25	0.0999941	595	non_foods\stim137_inanimate_plants_tulip_1.png	1	4	1	tulip_1	0	303	n/a	NaN	0	0	n/a	0	0	542.3673603	542.4673544	0.0999941
50991.75	0.0999915	596	non_foods\stim150_inanimate_tools_pan_2.png	1	4	1	pan_2	0	206	n/a	NaN	0	0	n/a	0	0	542.5173578	542.6173493	0.0999915
51029.25	0.0999862	597	foods\minestrone_soup.jpg	1	4	1	minestrone_soup	1	187	TF_160	0	0	0	n/a	0	0	542.6673639	542.7673501	0.0999862
51066.75	0.0999903	598	foods\spring_onions.jpg	1	4	1	spring_onions	1	282	NF_086	1	0	0	n/a	0	0	542.8173639	542.9173542	0.0999903
51104.25	0.099975	599	foods\salami.jpg	1	4	1	salami	1	255	TF_127	0	0	0	n/a	0	0	542.9673692	543.0673442	0.099975
51141.75	0.0999814	600	foods\fruit_pie.jpg	1	4	1	fruit_pie	1	128	TF_147	0	0	0	n/a	0	0	543.1173605	543.2173419	0.0999814
51179.25	0.0999573	601	non_foods\stim061_animate_mammal_cow_1.png	1	4	1	cow_1	0	94	n/a	NaN	0	0	n/a	0	0	543.2673939	543.3673512	0.0999573
51216.75	0.0999947	602	non_foods\stim130_inanimate_plants_sunflower_2.png	1	4	1	sunflower_2	0	287	n/a	NaN	0	0	n/a	0	0	543.4173529	543.5173476	0.0999947
51254.25	0.0999974	603	non_foods\stim153_inanimate_tools_scissors_1.png	1	4	1	scissors_1	0	258	n/a	NaN	0	0	n/a	0	0	543.5673476	543.667345	0.0999974
51291.75	0.0999907	604	foods\carrot.jpg	1	4	1	carrot	1	56	NF_019	1	0	0	n/a	0	0	543.7173576	543.8173483	0.0999907
51329.25	0.0999945	605	non_foods\stim024_animate_human_baby_4.png	1	4	1	baby_4	0	13	n/a	NaN	0	0	n/a	0	0	543.8673479	543.9673424	0.0999945
51366.75	0.0999914	606	non_foods\stim063_animate_mammal_cow_3.png	1	4	1	cow_3	0	96	n/a	NaN	0	0	n/a	0	0	544.0173471	544.1173385	0.0999914
51404.25	0.0999925	607	non_foods\stim120_inanimate_furniture_table_4.png	1	4	1	table_4	0	294	n/a	NaN	0	0	n/a	0	0	544.1673477	544.2673402	0.0999925
51441.75	0.0999892	608	foods\pear.jpg	1	4	1	pear	1	223	NF_077	1	0	0	n/a	0	0	544.3173507	544.4173399	0.0999892
51479.25	0.0999975	609	non_foods\stim128_inanimate_plants_cactus_4.png	1	4	1	cactus_4	0	52	n/a	NaN	0	0	n/a	0	0	544.4673428	544.5673403	0.0999975
51516.75	0.0999881	610	foods\celery.jpg	1	4	1	celery	1	58	NF_092	1	0	0	n/a	0	0	544.6173474	544.7173355	0.0999881
51554.25	0.0999955	611	non_foods\stim065_animate_mammal_giraffe_1.png	1	4	1	giraffe_1	0	132	n/a	NaN	0	0	n/a	0	0	544.7673378	544.8673333	0.0999955
51591.75	0.0999788	612	foods\cucumber.jpg	1	4	1	cucumber	1	101	NF_026	1	0	0	n/a	0	0	544.9173446	545.0173234	0.0999788
51629.25	0.0999584	613	foods\apple.jpg	1	4	1	apple	1	5	NF_055	1	0	0	n/a	0	0	545.0673746	545.167333	0.0999584
51666.75	0.0999913	614	foods\mussels.jpg	1	4	1	mussels	1	195	TF_042	0	0	0	n/a	0	0	545.2173433	545.3173346	0.0999913
51704.25	0.0999952	615	non_foods\stim051_animate_insect_butterfly_3.png	1	4	1	butterfly_3	0	46	n/a	NaN	0	0	n/a	0	0	545.3673327	545.4673279	0.0999952
51741.75	0.0999925	616	foods\dried_figs.jpg	1	4	1	dried_figs	1	110	TF_054	0	0	0	n/a	0	0	545.5173375	545.61733	0.0999925
51779.25	0.0999927	617	non_foods\stim092_inanimate_clothing_jeans_4.png	1	4	1	jeans_4	0	167	n/a	NaN	0	0	n/a	0	0	545.6673342	545.7673269	0.0999927
51816.75	0.0999893	618	foods\lemon.jpg	1	4	1	lemon	1	175	NF_049	1	0	0	n/a	0	0	545.8173368	545.9173261	0.0999893
51854.25	0.099993	619	foods\red_cabbage.jpg	1	4	1	red_cabbage	1	245	NF_023	1	0	0	n/a	0	0	545.9673347	546.0673277	0.099993
51891.75	0.0999656	620	foods\eggplant.jpg	1	4	1	eggplant	1	116	NF_059	1	0	0	n/a	0	0	546.1173548	546.2173204	0.0999656
51929.25	0.0999887	621	foods\blue_cheese.jpg	1	4	1	blue_cheese	1	25	TF_066	0	0	0	n/a	0	0	546.2673324	546.3673211	0.0999887
51966.75	0.0999843	622	foods\pork_and_rice.jpg	1	4	1	pork_and_rice	1	233	TF_080	0	0	0	n/a	0	0	546.4173368	546.5173211	0.0999843
52004.25	0.0999896	623	foods\kiwi.jpg	1	4	1	kiwi	1	172	NF_044	1	0	0	n/a	0	0	546.5673278	546.6673174	0.0999896
52041.75	0.1000048	624	foods\pancakes.jpg	1	4	1	pancakes	1	209	TF_058	0	0	0	n/a	0	0	546.7173297	546.8173345	0.1000048
52079.25	0.0999876	625	foods\grapes.jpg	1	4	1	grapes	1	142	NF_098	1	0	0	n/a	0	0	546.8673214	546.967309	0.0999876
52116.75	0.0999875	626	foods\chocolate_chip_cookies.jpg	1	4	1	chocolate_chip_cookies	1	76	TF_010	0	0	0	n/a	0	0	547.01732	547.1173075	0.0999875
52154.25	0.099987	627	foods\cupcake.jpg	1	4	1	cupcake	1	102	TF_050	0	0	0	n/a	0	0	547.1673176	547.2673046	0.099987
53187.5	0.0999897	628	non_foods\stim041_animate_insect_ant_1.png	1	5	1	ant_1	0	1	n/a	NaN	0	0	n/a	0	0	551.3006212	551.4006109	0.0999897
53225	0.0999931	629	non_foods\stim004_animate_bird_chicken_4.png	1	5	1	chicken_4	0	69	n/a	NaN	0	0	n/a	0	0	551.4506128	551.5506059	0.0999931
53262.5	0.0999963	630	non_foods\stim026_animate_human_child_2.png	1	5	1	child_2	0	71	n/a	NaN	0	0	n/a	0	0	551.6006132	551.7006095	0.0999963
53300	0.0999951	631	foods\gnocchi.jpg	1	5	1	gnocchi	1	140	TF_064	0	0	0	n/a	0	0	551.75061	551.8506051	0.0999951
53337.5	0.0999905	632	foods\taco.jpg	1	5	1	taco	1	295	TF_141	0	0	0	n/a	0	0	551.900615	552.0006055	0.0999905
53375	0.0999913	633	non_foods\stim052_animate_insect_butterfly_4.png	1	5	1	butterfly_4	0	47	n/a	NaN	0	0	n/a	0	0	552.0506098	552.1506011	0.0999913
53412.5	0.0999964	634	non_foods\stim042_animate_insect_ant_2.png	1	5	1	ant_2	0	2	n/a	NaN	0	0	n/a	0	0	552.2006037	552.3006001	0.0999964
53450	0.0999895	635	foods\cuttlefish.jpg	1	5	1	cuttlefish	1	103	NF_093	1	0	0	n/a	0	0	552.3506145	552.450604	0.0999895
53487.5	0.0999859	636	foods\bread.jpg	1	5	1	bread	1	26	TF_089	0	0	0	n/a	0	0	552.5006142	552.6006001	0.0999859
53525	0.0999877	637	foods\apricot.jpg	1	5	1	apricot	1	6	NF_002	1	0	0	n/a	0	0	552.650609	552.7505967	0.0999877
53562.5	0.0999965	638	non_foods\stim070_animate_mammal_kangaroo_2.png	1	5	1	kangaroo_2	0	169	n/a	NaN	0	0	n/a	0	0	552.8006009	552.9005974	0.0999965
53600	0.0999985	639	non_foods\stim046_animate_insect_bug_2.png	1	5	1	bug_2	0	37	n/a	NaN	0	0	n/a	0	0	552.9505973	553.0505958	0.0999985
53637.5	0.1000011	640	non_foods\stim006_animate_bird_duck_2.png	1	5	1	duck_2	0	112	n/a	NaN	0	0	n/a	0	0	553.1005998	553.2006009	0.1000011
53675	0.0999758	641	foods\lamb_chops.jpg	1	5	1	lamb_chops	1	173	TF_040	0	0	0	n/a	0	0	553.2506085	553.3505843	0.0999758
53712.5	0.0999954	642	non_foods\stim094_inanimate_clothing_shirt_2.png	1	5	1	shirt_2	0	263	n/a	NaN	0	0	n/a	0	0	553.4005887	553.5005841	0.0999954
53750	0.1000151	643	foods\wafer.jpg	1	5	1	wafer	1	307	TF_155	0	0	0	n/a	0	0	553.5505767	553.6505918	0.1000151
53787.5	0.0999884	644	foods\chocolate_bar.jpg	1	5	1	chocolate_bar	1	75	TF_033	0	0	0	n/a	0	0	553.7006003	553.8005887	0.0999884
53825	0.09999	645	foods\celery.jpg	1	5	1	celery	1	58	NF_092	1	0	0	n/a	0	0	553.8505979	553.9505879	0.09999
53862.5	0.0999941	646	non_foods\stim011_animate_bird_parrot_3.png	1	5	1	parrot_3	0	214	n/a	NaN	0	0	n/a	0	0	554.0005916	554.1005857	0.0999941
53900	0.0999951	647	non_foods\stim158_inanimate_tools_wrench_2.png	1	5	1	wrench_2	0	311	n/a	NaN	0	0	n/a	0	0	554.1505891	554.2505842	0.0999951
53937.5	0.0999976	648	non_foods\stim057_animate_insect_grasshopper_1.png	1	5	1	grasshopper_1	0	143	n/a	NaN	0	0	n/a	0	0	554.300585	554.4005826	0.0999976
53975	0.1000019	649	foods\oven-roasted_tomatoes.jpg	1	5	1	oven-roasted_tomatoes	1	203	TF_114	0	0	0	n/a	0	0	554.4505818	554.5505837	0.1000019
54012.5	0.0999991	650	non_foods\stim056_animate_insect_dragonfly_4.png	1	5	1	dragonfly_4	0	109	n/a	NaN	0	0	n/a	0	0	554.6005839	554.700583	0.0999991
54050	0.0999919	651	foods\fried_zucchini.jpg	1	5	1	fried_zucchini	1	125	TF_159	0	0	0	n/a	0	0	554.7505897	554.8505816	0.0999919
54087.5	0.0999957	652	non_foods\stim020_animate_bird_penguin_4.png	1	5	1	penguin_4	0	228	n/a	NaN	0	0	n/a	0	0	554.9005812	555.0005769	0.0999957
54125	0.0999997	653	non_foods\stim010_animate_bird_parrot_2.png	1	5	1	parrot_2	0	213	n/a	NaN	0	0	n/a	0	0	555.0505771	555.1505768	0.0999997
54162.5	0.0999871	654	foods\green_beans.jpg	1	5	1	green_beans	1	147	NF_034	1	0	0	n/a	0	0	555.2005886	555.3005757	0.0999871
54200	0.0999903	655	foods\lasagna.jpg	1	5	1	lasagna	1	174	TF_076	0	0	0	n/a	0	0	555.3505845	555.4505748	0.0999903
54237.5	0.0999961	656	non_foods\stim071_animate_mammal_kangaroo_3.png	1	5	1	kangaroo_3	0	170	n/a	NaN	1	0	n/a	0	0	555.5005759	555.600572	0.0999961
54275	0.0999961	657	non_foods\stim156_inanimate_tools_scissors_4.png	1	5	1	scissors_4	0	261	n/a	NaN	0	0	n/a	0	0	555.6505742	555.7505703	0.0999961
54312.5	0.099987	658	foods\spaghetti_with_olives_and_capers.jpg	1	5	1	spaghetti_with_olives_and_capers	1	276	TF_135	0	0	1	a	0.3920998	1	555.800578	555.900565	0.099987
54350	0.0999869	659	foods\stew_with_potatoes_and_carrots.jpg	1	5	1	stew_with_potatoes_and_carrots	1	284	TF_139	0	0	0	n/a	0	0	555.9505805	556.0505674	0.0999869
54387.5	0.099983	660	non_foods\stim085_inanimate_clothing_hat_1.png	1	5	1	hat_1	0	155	n/a	NaN	0	0	n/a	0	0	556.1005749	556.2005579	0.099983
54425	0.0999767	661	non_foods\stim002_animate_bird_chicken_2.png	1	5	1	chicken_2	0	67	n/a	NaN	0	0	n/a	0	0	556.2505871	556.3505638	0.0999767
54462.5	0.0999891	662	foods\nougat.jpg	1	5	1	nougat	1	197	TF_144	0	0	0	n/a	0	0	556.400574	556.5005631	0.0999891
54500	0.0999918	663	foods\bread_roll.jpg	1	5	1	bread_roll	1	27	TF_090	0	0	0	n/a	0	0	556.5505711	556.6505629	0.0999918
54537.5	0.0999959	664	non_foods\stim131_inanimate_plants_sunflower_3.png	1	5	1	sunflower_3	0	288	n/a	NaN	0	0	n/a	0	0	556.7005649	556.8005608	0.0999959
54575	0.0999938	665	non_foods\stim153_inanimate_tools_scissors_1.png	1	5	1	scissors_1	0	258	n/a	NaN	0	0	n/a	0	0	556.8505644	556.9505582	0.0999938
54612.5	0.0999895	666	non_foods\stim100_inanimate_clothing_socks_4.png	1	5	1	socks_4	0	270	n/a	NaN	0	0	n/a	0	0	557.0005626	557.1005521	0.0999895
54650	0.0999969	667	foods\baked_cod_with_carrots_and_green_beans.jpg	1	5	1	baked_cod_with_carrots_and_green_beans	1	16	TF_082	0	0	0	n/a	0	0	557.1505607	557.2505576	0.0999969
54687.5	0.0999892	668	foods\museli_bars.jpg	1	5	1	museli_bars	1	193	TF_008	0	0	0	n/a	0	0	557.300567	557.4005562	0.0999892
54725	0.0999982	669	non_foods\stim138_inanimate_plants_tulip_2.png	1	5	1	tulip_2	0	304	n/a	NaN	0	0	n/a	0	0	557.4505561	557.5505543	0.0999982
54762.5	0.0999914	670	foods\cream_donuts.jpg	1	5	1	cream_donuts	1	99	TF_014	0	0	0	n/a	0	0	557.6005661	557.7005575	0.0999914
54800	0.0999966	671	non_foods\stim038_animate_human_sports_2.png	1	5	1	sports_2	0	279	n/a	NaN	0	0	n/a	0	0	557.7505544	557.850551	0.0999966
54837.5	0.0999922	672	foods\lettuce.jpg	1	5	1	lettuce	1	178	NF_046	1	0	0	n/a	0	0	557.9005598	558.000552	0.0999922
54875	0.0999957	673	non_foods\stim033_animate_human_faces_1.png	1	5	1	faces_1	0	117	n/a	NaN	0	0	n/a	0	0	558.0505523	558.150548	0.0999957
54912.5	0.099965	674	foods\spinach.jpg	1	5	1	spinach	1	277	NF_094	1	0	0	n/a	0	0	558.200558	558.300523	0.099965
54950	0.0999863	675	foods\capsicum.jpg	1	5	1	capsicum	1	55	NF_076	1	0	0	n/a	0	0	558.3505635	558.4505498	0.0999863
54987.5	0.0999896	676	non_foods\stim135_inanimate_plants_tree_3.png	1	5	1	tree_3	0	301	n/a	NaN	0	0	n/a	0	0	558.5005538	558.6005434	0.0999896
55025	0.1000006	677	non_foods\stim074_animate_mammal_monkey_2.png	1	5	1	monkey_2	0	189	n/a	NaN	0	0	n/a	0	0	558.6505459	558.7505465	0.1000006
55062.5	0.0999969	678	non_foods\stim104_inanimate_furniture_bed_4.png	1	5	1	bed_4	0	22	n/a	NaN	0	0	n/a	0	0	558.8005471	558.900544	0.0999969
55100	0.0999952	679	non_foods\stim082_inanimate_clothing_gloves_2.png	1	5	1	gloves_2	0	137	n/a	NaN	0	0	n/a	0	0	558.9505447	559.0505399	0.0999952
55137.5	0.0999931	680	foods\lime.jpg	1	5	1	lime	1	180	NF_048	1	0	0	n/a	0	0	559.1005468	559.2005399	0.0999931
55175	0.0999866	681	non_foods\stim106_inanimate_furniture_chair_2.png	1	5	1	chair_2	0	61	n/a	NaN	0	0	n/a	0	0	559.2505459	559.3505325	0.0999866
55212.5	0.1000051	682	non_foods\stim019_animate_bird_penguin_3.png	1	5	1	penguin_3	0	227	n/a	NaN	0	0	n/a	0	0	559.4005404	559.5005455	0.1000051
55250	0.100003	683	non_foods\stim108_inanimate_furniture_chair_4.png	1	5	1	chair_4	0	63	n/a	NaN	0	0	n/a	0	0	559.5505448	559.6505478	0.100003
55287.5	0.1000067	684	foods\chestnut.jpg	1	5	1	chestnut	1	65	NF_020	1	0	0	n/a	0	0	559.7005173	559.800524	0.1000067
55325	0.1000064	685	foods\octopus.jpg	1	5	1	octopus	1	198	TF_113	0	0	0	n/a	0	0	559.8505347	559.9505411	0.1000064
55362.5	0.0999962	686	foods\blue_cheese.jpg	1	5	1	blue_cheese	1	25	TF_066	0	0	0	n/a	0	0	560.0005419	560.1005381	0.0999962
55400	0.0999827	687	foods\meatballs.jpg	1	5	1	meatballs	1	186	TF_112	0	0	0	n/a	0	0	560.1505424	560.2505251	0.0999827
55437.5	0.1000006	688	foods\eggplant.jpg	1	5	1	eggplant	1	116	NF_059	1	0	0	n/a	0	0	560.3005228	560.4005234	0.1000006
55475	0.0999926	689	foods\pepperoni_pizza.jpg	1	5	1	pepperoni_pizza	1	229	TF_106	0	0	0	n/a	0	0	560.4505356	560.5505282	0.0999926
55512.5	0.0999896	690	foods\watermelon.jpg	1	5	1	watermelon	1	309	NF_005	1	0	0	n/a	0	0	560.6005378	560.7005274	0.0999896
55550	0.0999896	691	foods\coconut.jpg	1	5	1	coconut	1	89	NF_030	1	0	0	n/a	0	0	560.7505361	560.8505257	0.0999896
55587.5	0.0999936	692	non_foods\stim115_inanimate_furniture_sofa_3.png	1	5	1	sofa_3	0	273	n/a	NaN	0	0	n/a	0	0	560.9005286	561.0005222	0.0999936
55625	0.0999965	693	non_foods\stim125_inanimate_plants_cactus_1.png	1	5	1	cactus_1	0	49	n/a	NaN	0	0	n/a	0	0	561.0505286	561.1505251	0.0999965
55662.5	0.0999925	694	non_foods\stim103_inanimate_furniture_bed_3.png	1	5	1	bed_3	0	21	n/a	NaN	0	0	n/a	0	0	561.2005282	561.3005207	0.0999925
55700	0.0999929	695	foods\roasted_chicken.jpg	1	5	1	roasted_chicken	1	253	TF_109	0	0	0	n/a	0	0	561.3505274	561.4505203	0.0999929
55737.5	0.0999969	696	non_foods\stim090_inanimate_clothing_jeans_2.png	1	5	1	jeans_2	0	165	n/a	NaN	0	0	n/a	0	0	561.5005238	561.6005207	0.0999969
55775	0.0999961	697	non_foods\stim008_animate_bird_duck_4.png	1	5	1	duck_4	0	114	n/a	NaN	0	0	n/a	0	0	561.6505206	561.7505167	0.0999961
55812.5	0.0999873	698	non_foods\stim130_inanimate_plants_sunflower_2.png	1	5	1	sunflower_2	0	287	n/a	NaN	0	0	n/a	0	0	561.8005203	561.9005076	0.0999873
55850	0.1000001	699	non_foods\stim150_inanimate_tools_pan_2.png	1	5	1	pan_2	0	206	n/a	NaN	0	0	n/a	0	0	561.9505147	562.0505148	0.1000001
55887.5	0.0999956	700	non_foods\stim099_inanimate_clothing_socks_3.png	1	5	1	socks_3	0	269	n/a	NaN	0	0	n/a	0	0	562.1005195	562.2005151	0.0999956
55925	0.0999871	701	foods\cinnamon_sroll.jpg	1	5	1	cinnamon_sroll	1	80	TF_021	0	0	0	n/a	0	0	562.250525	562.3505121	0.0999871
55962.5	0.1000003	702	foods\licorice.jpg	1	5	1	licorice	1	179	TF_078	0	0	0	n/a	0	0	562.4005125	562.5005128	0.1000003
56000	0.0999932	703	non_foods\stim110_inanimate_furniture_closet_2.png	1	5	1	closet_2	0	82	n/a	NaN	0	0	n/a	0	0	562.5505174	562.6505106	0.0999932
56037.5	0.099998	704	non_foods\stim117_inanimate_furniture_table_1.png	1	5	1	table_1	0	291	n/a	NaN	0	0	n/a	0	0	562.7005115	562.8005095	0.099998
56075	0.099993	705	foods\mussels.jpg	1	5	1	mussels	1	195	TF_042	0	0	0	n/a	0	0	562.8505182	562.9505112	0.099993
56112.5	0.0999845	706	foods\oyster.jpg	1	5	1	oyster	1	204	NF_067	1	0	0	n/a	0	0	563.0005184	563.1005029	0.0999845
56150	0.1000007	707	non_foods\stim124_inanimate_plants_bush_4.png	1	5	1	bush_4	0	43	n/a	NaN	0	0	n/a	0	0	563.1505046	563.2505053	0.1000007
56187.5	0.1	708	non_foods\stim093_inanimate_clothing_shirt_1.png	1	5	1	shirt_1	0	262	n/a	NaN	0	0	n/a	0	0	563.300505	563.400505	0.1
56225	0.0999965	709	foods\kiwi.jpg	1	5	1	kiwi	1	172	NF_044	1	0	0	n/a	0	0	563.450505	563.5505015	0.0999965
56262.5	0.099997	710	foods\ice_cream_sandwich.jpg	1	5	1	ice_cream_sandwich	1	163	TF_061	0	0	0	n/a	0	0	563.600511	563.700508	0.099997
56300	0.0999962	711	non_foods\stim160_inanimate_tools_wrench_4.png	1	5	1	wrench_4	0	313	n/a	NaN	0	0	n/a	0	0	563.7505018	563.850498	0.0999962
56337.5	0.0999923	712	foods\fennel.jpg	1	5	1	fennel	1	121	NF_036	1	0	0	n/a	0	0	563.9005047	564.000497	0.0999923
56375	0.0999977	713	non_foods\stim116_inanimate_furniture_sofa_4.png	1	5	1	sofa_4	0	274	n/a	NaN	0	0	n/a	0	0	564.0504983	564.150496	0.0999977
56412.5	0.0999923	714	non_foods\stim067_animate_mammal_giraffe_3.png	1	5	1	giraffe_3	0	134	n/a	NaN	0	0	n/a	0	0	564.2004995	564.3004918	0.0999923
56450	0.0999948	715	non_foods\stim001_animate_bird_chicken_1.png	1	5	1	chicken_1	0	66	n/a	NaN	0	0	n/a	0	0	564.3504985	564.4504933	0.0999948
56487.5	0.0999934	716	foods\baguette.jpg	1	5	1	baguette	1	15	TF_006	0	0	0	n/a	0	0	564.5005002	564.6004936	0.0999934
56525	0.0999864	717	foods\linguine_with_clams.jpg	1	5	1	linguine_with_clams	1	181	TF_077	0	0	0	n/a	0	0	564.6505015	564.7504879	0.0999864
56562.5	0.0999941	718	foods\pineapple.jpg	1	5	1	pineapple	1	231	NF_004	1	0	0	n/a	0	0	564.8004978	564.9004919	0.0999941
56600	0.0999959	719	non_foods\stim091_inanimate_clothing_jeans_3.png	1	5	1	jeans_3	0	166	n/a	NaN	0	0	n/a	0	0	564.950493	565.0504889	0.0999959
56637.5	0.0999922	720	foods\lemon_meringue_pie.jpg	1	5	1	lemon_meringue_pie	1	176	TF_151	0	0	0	n/a	0	0	565.1004975	565.2004897	0.0999922
56675	0.09999	721	non_foods\stim023_animate_human_baby_3.png	1	5	1	baby_3	0	12	n/a	NaN	0	0	n/a	0	0	565.2504949	565.3504849	0.09999
56712.5	0.0999864	722	foods\pancakes.jpg	1	5	1	pancakes	1	209	TF_058	0	0	0	n/a	0	0	565.4004947	565.5004811	0.0999864
56750	0.099996	723	non_foods\stim047_animate_insect_bug_3.png	1	5	1	bug_3	0	38	n/a	NaN	0	0	n/a	0	0	565.5504854	565.6504814	0.099996
56787.5	0.0999906	724	foods\dried_figs.jpg	1	5	1	dried_figs	1	110	TF_054	0	0	0	n/a	0	0	565.700491	565.8004816	0.0999906
56825	0.0999964	725	non_foods\stim119_inanimate_furniture_table_3.png	1	5	1	table_3	0	293	n/a	NaN	0	0	n/a	0	0	565.850481	565.9504774	0.0999964
56862.5	0.0999903	726	foods\hamburger.jpg	1	5	1	hamburger	1	150	TF_069	0	0	0	n/a	0	0	566.0004885	566.1004788	0.0999903
56900	0.0999859	727	foods\broccoli.jpg	1	5	1	broccoli	1	29	NF_016	1	0	0	n/a	0	0	566.150487	566.2504729	0.0999859
56937.5	0.1	728	non_foods\stim136_inanimate_plants_tree_4.png	1	5	1	tree_4	0	302	n/a	NaN	0	0	n/a	0	0	566.3004787	566.4004787	0.1
56975	0.099996	729	non_foods\stim012_animate_bird_parrot_4.png	1	5	1	parrot_4	0	215	n/a	NaN	0	0	n/a	0	0	566.4504781	566.5504741	0.099996
57012.5	0.0999907	730	foods\minestrone_soup.jpg	1	5	1	minestrone_soup	1	187	TF_160	0	0	0	n/a	0	0	566.6004832	566.7004739	0.0999907
57050	0.0999971	731	non_foods\stim143_inanimate_tools_broom_3.png	1	5	1	broom_3	0	32	n/a	NaN	0	0	n/a	0	0	566.7504721	566.8504692	0.0999971
57087.5	0.0999904	732	foods\grilled_chicken_breast.jpg	1	5	1	grilled_chicken_breast	1	149	TF_104	0	0	0	n/a	0	0	566.9004824	567.0004728	0.0999904
57125	0.0999894	733	foods\pear.jpg	1	5	1	pear	1	223	NF_077	1	0	0	n/a	0	0	567.0504783	567.1504677	0.0999894
57162.5	0.0999896	734	foods\waffle.jpg	1	5	1	waffle	1	308	TF_030	0	0	0	n/a	0	0	567.2004784	567.300468	0.0999896
57200	0.0999977	735	non_foods\stim102_inanimate_furniture_bed_2.png	1	5	1	bed_2	0	20	n/a	NaN	0	0	n/a	0	0	567.3504695	567.4504672	0.0999977
57237.5	0.0999853	736	foods\ice_cream.jpg	1	5	1	ice_cream	1	162	TF_062	0	0	0	n/a	0	0	567.5004779	567.6004632	0.0999853
57275	0.0999921	737	non_foods\stim146_inanimate_tools_hammer_2.png	1	5	1	hammer_2	0	152	n/a	NaN	0	0	n/a	0	0	567.6504691	567.7504612	0.0999921
57312.5	0.1000126	738	foods\baked_lamb_with_potatoes.jpg	1	5	1	baked_lamb_with_potatoes	1	17	TF_001	0	0	0	n/a	0	0	567.8004736	567.9004862	0.1000126
57350	0.0999981	739	foods\cauliflower.jpg	1	5	1	cauliflower	1	57	NF_022	1	0	0	n/a	0	0	567.9504747	568.0504728	0.0999981
57387.5	0.0999944	740	non_foods\stim122_inanimate_plants_bush_2.png	1	5	1	bush_2	0	41	n/a	NaN	0	0	n/a	0	0	568.1004637	568.2004581	0.0999944
57425	0.0999959	741	non_foods\stim005_animate_bird_duck_1.png	1	5	1	duck_1	0	111	n/a	NaN	0	0	n/a	0	0	568.2504618	568.3504577	0.0999959
57462.5	0.099995	742	foods\brie.jpg	1	5	1	brie	1	28	TF_016	0	0	0	n/a	0	0	568.4004668	568.5004618	0.099995
57500	0.1000164	743	non_foods\stim101_inanimate_furniture_bed_1.png	1	5	1	bed_1	0	19	n/a	NaN	0	0	n/a	0	0	568.5504358	568.6504522	0.1000164
57537.5	0.0999819	744	non_foods\stim045_animate_insect_bug_1.png	1	5	1	bug_1	0	36	n/a	NaN	1	0	n/a	0	0	568.7004721	568.800454	0.0999819
57575	0.099998	745	non_foods\stim139_inanimate_plants_tulip_3.png	1	5	1	tulip_3	0	305	n/a	NaN	0	0	n/a	0	0	568.8504559	568.9504539	0.099998
57612.5	0.0999984	746	foods\honey.jpg	1	5	1	honey	1	160	NF_062	1	0	1	a	0.3922762	1	569.0004588	569.1004572	0.0999984
57650	0.099986	747	foods\cinnamon.jpg	1	5	1	cinnamon	1	79	NF_017	1	0	0	n/a	0	0	569.1504638	569.2504498	0.099986
57687.5	0.0999966	748	non_foods\stim113_inanimate_furniture_sofa_1.png	1	5	1	sofa_1	0	271	n/a	NaN	0	0	n/a	0	0	569.300453	569.4004496	0.0999966
57725	0.0999894	749	foods\rice.jpg	1	5	1	rice	1	250	TF_121	0	0	0	n/a	0	0	569.4504589	569.5504483	0.0999894
57762.5	0.0999873	750	foods\pumpkin.jpg	1	5	1	pumpkin	1	239	NF_101	1	0	0	n/a	0	0	569.6004578	569.7004451	0.0999873
57800	0.1000041	751	non_foods\stim081_inanimate_clothing_gloves_1.png	1	5	1	gloves_1	0	136	n/a	NaN	0	0	n/a	0	0	569.7504506	569.8504547	0.1000041
57837.5	0.0999871	752	foods\chocolate_pralines.jpg	1	5	1	chocolate_pralines	1	77	TF_035	0	0	0	n/a	0	0	569.9004563	570.0004434	0.0999871
57875	0.0999886	753	foods\brownie.jpg	1	5	1	brownie	1	34	TF_011	0	0	0	n/a	0	0	570.0504533	570.1504419	0.0999886
